time,seconds_elapsed,z,y,x
1718607420438296300,0.19529638671875,0.09057807922363281,-0.010665655136108398,-0.038050755858421326
1718607420516496000,0.273495849609375,0.04990673065185547,0.013258129358291626,-0.046893566846847534
1718607420594695200,0.351695068359375,0.024776458740234375,0.050910770893096924,0.012539327144622803
1718607420672894500,0.42989453125,0.060683250427246094,-0.013048410415649414,-0.013026490807533264
1718607420751094000,0.508093994140625,0.030809402465820312,0.04259994626045227,0.05742985010147095
1718607420829293300,0.586293212890625,0.05846691131591797,0.0000903010368347168,-0.012358903884887695
1718607420907492600,0.66449267578125,0.06101417541503906,-0.02875390648841858,-0.0981498509645462
1718607420985692200,0.742692138671875,0.07782840728759766,0.0001825094223022461,-0.08952592313289642
1718607421063891500,0.820891357421875,0.07410049438476562,0.012257128953933716,-0.07194873690605164
1718607421142090800,0.8990908203125,0.044081687927246094,-0.0277232825756073,-0.04727323353290558
1718607421220290300,0.977290283203125,0.06670761108398438,-0.026636451482772827,0.009348288178443909
1718607421298489600,1.055489501953125,0.06166648864746094,0.060484230518341064,0.04638070613145828
1718607421376689000,1.13368896484375,0.04371166229248047,-0.03202897310256958,0.04025004059076309
1718607421454888400,1.211888427734375,0.045009613037109375,0.008632063865661621,-0.1369009166955948
1718607421533087700,1.290087646484375,0.0449676513671875,0.03304469585418701,-0.008535876870155334
1718607421611287000,1.368287109375,0.05456256866455078,0.032139748334884644,0.029257498681545258
1718607421689486600,1.446486572265625,0.035411834716796875,-0.012493222951889038,0.011948615312576294
1718607421767686000,1.524685791015625,0.043804168701171875,0.03159204125404358,-0.06904749572277069
1718607421845885200,1.60288525390625,0.05583667755126953,0.010850578546524048,-0.0866774320602417
1718607421924084700,1.681084716796875,0.06184673309326172,-0.010568857192993164,-0.03472167253494263
1718607422002284000,1.759283935546875,0.048595428466796875,-0.03364291787147522,0.011383473873138428
1718607422080483600,1.837483642578125,0.10215282440185547,0.07141794264316559,-0.00153331458568573
1718607422158683000,1.915682861328125,0.0006246566772460938,0.031055033206939697,0.02562481164932251
1718607422236882200,1.993882080078125,0.003082275390625,0.028369754552841187,-0.08962234854698181
1718607422315081700,2.072081787109375,0.04853343963623047,0.024860471487045288,0.04382305592298508
1718607422393281000,2.150281005859375,0.0641489028930664,-0.017935335636138916,-0.046172767877578735
1718607422471480300,2.228480224609375,0.053427696228027344,-0.01860225200653076,-0.061881303787231445
1718607422549679900,2.306679931640625,0.05576801300048828,0.051064640283584595,0.039621755480766296
1718607422627879200,2.384879150390625,0.023561477661132812,-0.03669160604476929,-0.02401682734489441
1718607422706078500,2.463078369140625,0.06431007385253906,0.061964452266693115,-0.07566449046134949
1718607422784278000,2.541278076171875,0.03810882568359375,0.061101704835891724,-0.04804135859012604
1718607422862477300,2.619477294921875,0.007081031799316406,-0.05000358819961548,-0.034943804144859314
1718607422940676900,2.6976767578125,0.07758235931396484,-0.1078176200389862,-0.0496441125869751
1718607423018876200,2.775876220703125,0.03791236877441406,-0.05196511745452881,0.0589480921626091
1718607423097075500,2.854075439453125,-0.033186912536621094,0.19814366102218628,-0.023324966430664062
1718607423175275000,2.93227490234375,0.11256790161132812,-0.28632450103759766,-0.06610767543315887
1718607423253474300,3.010474365234375,-0.012754440307617188,-0.10680484771728516,0.1036502867937088
1718607423331673600,3.088673583984375,0.013745307922363281,-0.15752539038658142,-0.07971897721290588
1718607423409873200,3.166873046875,0.03922748565673828,-0.3060939610004425,0.02064955234527588
1718607423488072400,3.245072509765625,0.05729389190673828,-0.3310650587081909,-0.008353009819984436
1718607423566271700,3.323271728515625,-0.04919719696044922,-0.31523483991622925,-0.0036388635635375977
1718607423644471300,3.40147119140625,0.1712474822998047,-0.4004276990890503,-0.023672983050346375
1718607423722670600,3.479670654296875,0.09796810150146484,-0.712651252746582,-0.00878836214542389
1718607423800870100,3.5578701171875,0.0003299713134765625,-0.5001195073127747,0.011880680918693542
1718607423879069400,3.6360693359375,0.07786083221435547,-0.6314592957496643,-0.04295921325683594
1718607423957268700,3.714268798828125,0.054116249084472656,-0.7085736989974976,0.05104745924472809
1718607424035468300,3.79246826171875,0.11911201477050781,-0.5792189836502075,-0.0244312584400177
1718607424113667600,3.87066748046875,-0.08037948608398438,-0.8019008040428162,-0.056113988161087036
1718607424191867000,3.948866943359375,0.04862689971923828,-0.7914251685142517,-0.011236727237701416
1718607424270066400,4.02706640625,-0.00385284423828125,-0.8326162099838257,0.023308157920837402
1718607424348265700,4.105265625,0.008385658264160156,-0.8157651424407959,-0.02586643397808075
1718607424426465300,4.18346533203125,0.061636924743652344,-0.9452637434005737,0.013609901070594788
1718607424504664600,4.26166455078125,0.11442089080810547,-0.923038899898529,-0.005682885646820068
1718607424582864000,4.33986376953125,0.04974842071533203,-0.9200703501701355,-0.001870185136795044
1718607424661063400,4.4180634765625,0.07792282104492188,-1.2307300567626953,-0.06603439152240753
1718607424739262700,4.4962626953125,-0.028432846069335938,-1.1243188381195068,0.03677932918071747
1718607424817462000,4.5744619140625,0.11780834197998047,-1.0367395877838135,-0.00905485451221466
1718607424895661600,4.65266162109375,-0.06538677215576172,-1.0901474952697754,0.07472527027130127
1718607424973860900,4.73086083984375,0.08901119232177734,-1.125834584236145,-0.037770673632621765
1718607425052060200,4.80906005859375,0.027871131896972656,-0.9576499462127686,0.006697073578834534
1718607425130259700,4.887259765625,0.012317657470703125,-1.1163933277130127,0.06459754705429077
1718607425208459000,4.965458984375,0.053333282470703125,-1.1249489784240723,0.0019342303276062012
1718607425286658600,5.043658447265625,-0.013509750366210938,-0.9433341026306152,-0.0944666713476181
1718607425364857900,5.12185791015625,0.06455039978027344,-1.1017355918884277,-0.02375262975692749
1718607425443057200,5.20005712890625,0.027545928955078125,-1.0888195037841797,0.13887038826942444
1718607425521256700,5.278256591796875,0.05535316467285156,-0.9979251623153687,-0.08257044851779938
1718607425599456000,5.3564560546875,0.08436203002929688,-1.0731626749038696,-0.007002159953117371
1718607425677655600,5.434655517578125,0.12642955780029297,-1.030196189880371,0.001978158950805664
1718607425755854800,5.512854736328125,0.05763053894042969,-1.0116668939590454,-0.08730088174343109
1718607425834054100,5.59105419921875,0.024478912353515625,-1.0749987363815308,0.052375003695487976
1718607425912253700,5.669253662109375,0.040373802185058594,-1.0327976942062378,0.1385132074356079
1718607425990453000,5.747452880859375,0.05142784118652344,-0.9430364966392517,-0.09465312957763672
1718607426068652500,5.825652587890625,0.027973175048828125,-1.0197820663452148,-0.036891013383865356
1718607426146851800,5.903851806640625,0.018735885620117188,-0.9218839406967163,0.06622892618179321
1718607426225051100,5.982051025390625,0.12113761901855469,-1.0726711750030518,-0.05125334858894348
1718607426303250700,6.060250732421875,0.12750720977783203,-0.9295533299446106,0.023416027426719666
1718607426381450000,6.138449951171875,0.050243377685546875,-0.9763752222061157,-0.0023825913667678833
1718607426459649300,6.216649169921875,0.05663299560546875,-1.0167008638381958,0.030211374163627625
1718607426537848800,6.294848876953125,0.01726531982421875,-0.998650312423706,0.036356121301651
1718607426616048000,6.373048095703125,-0.013634681701660156,-0.9060341119766235,-0.0074865370988845825
1718607426694247700,6.45124755859375,0.088348388671875,-1.0203267335891724,-0.04714076220989227
1718607426772447000,6.529447021484375,0.17459678649902344,-0.9491226077079773,0.02409452199935913
1718607426850646300,6.607646240234375,0.13161373138427734,-0.8905994892120361,0.01592792570590973
1718607426928845800,6.685845703125,0.01774883270263672,-0.9532231688499451,-0.14645427465438843
1718607427007045000,6.764045166015625,-0.010807037353515625,-0.8427512049674988,0.04820294678211212
1718607427085244700,6.84224462890625,-0.07383346557617188,-0.8434855341911316,-0.038860470056533813
1718607427163444000,6.92044384765625,-0.03512001037597656,-0.8853880763053894,0.11553579568862915
1718607427241643500,6.9986435546875,0.06558036804199219,-0.8440422415733337,0.05097063630819321
1718607427319842800,7.0768427734375,0.05898571014404297,-0.7926616072654724,-0.0146903395652771
1718607427398042000,7.1550419921875,0.08622074127197266,-0.8642668724060059,0.07786795496940613
1718607427476241700,7.23324169921875,0.0017871856689453125,-0.8593922257423401,0.06075403839349747
1718607427554441000,7.31144091796875,0.04256153106689453,-0.9047911763191223,-0.061056509613990784
1718607427632640500,7.389640625,0.041962623596191406,-0.9001655578613281,-0.18179023265838623
1718607427710839800,7.46783984375,0.05450439453125,-0.8198307156562805,0.04286196827888489
1718607427789039000,7.5460390625,-0.10551929473876953,-0.8352267742156982,0.04356323182582855
1718607427867238700,7.62423876953125,0.02205371856689453,-0.8769269585609436,-0.04247443377971649
1718607427945438000,7.70243798828125,0.11423778533935547,-0.7709082365036011,0.058065265417099
1718607428023637500,7.780637451171875,-0.04705238342285156,-0.7758861780166626,-0.01466543972492218
1718607428101836800,7.8588369140625,-0.1729755401611328,-0.7508557438850403,-0.045552968978881836
1718607428180036000,7.9370361328125,-0.037209510803222656,-0.7669866681098938,-0.0948597639799118
1718607428258235600,8.015235595703125,0.05031299591064453,-0.8023369908332825,0.017871081829071045
1718607428336435200,8.093435302734376,0.22805118560791016,-0.847468376159668,-0.04154318571090698
1718607428414634500,8.171634521484375,0.19963836669921875,-0.8514900803565979,0.0574798658490181
1718607428492833800,8.249833740234376,0.12885284423828125,-0.8562962412834167,0.043448306620121
1718607428571033300,8.328033447265625,0.08202171325683594,-0.7210478186607361,0.14747682213783264
1718607428649232600,8.406232666015624,-0.1563711166381836,-0.7119080424308777,0.017712578177452087
1718607428727432200,8.48443212890625,-0.057689666748046875,-0.7220079898834229,-0.07260902225971222
1718607428805631500,8.562631591796874,0.00711822509765625,-0.7157791256904602,-0.12712512910366058
1718607428883830800,8.640830810546875,0.2552032470703125,-0.7840580344200134,-0.0372590571641922
1718607428962030300,8.7190302734375,0.2422628402709961,-0.7904484272003174,0.3316251039505005
1718607429040230000,8.79722998046875,0.1692342758178711,-0.752531111240387,-0.1919880360364914
1718607429118429200,8.87542919921875,-0.11730575561523438,-0.5199847221374512,-0.05685164034366608
1718607429196628700,8.953628662109375,-0.1763601303100586,-0.7960169911384583,0.14783933758735657
1718607429274828000,9.031828125,-0.050820350646972656,-0.7827504277229309,0.011118307709693909
1718607429353027300,9.11002734375,0.11187934875488281,-0.652850866317749,-0.21280382573604584
1718607429431227000,9.188226806640625,0.2051982879638672,-0.649978756904602,0.12677858769893646
1718607429509426200,9.26642626953125,0.21101093292236328,-0.785075306892395,0.13048696517944336
1718607429587625700,9.344625732421875,0.0021581649780273438,-0.6366322040557861,-0.02040669322013855
1718607429665825000,9.422824951171876,-0.08764934539794922,-0.6499313712120056,-0.08085770905017853
1718607429744024600,9.501024658203125,0.056674957275390625,-0.7398180961608887,0.039521217346191406
1718607429822224000,9.579223876953124,0.06704044342041016,-0.736261785030365,-0.13523820042610168
1718607429900423400,9.65742333984375,0.21336936950683594,-0.5054228901863098,0.052411310374736786
1718607429978622700,9.735622802734374,0.22313213348388672,-0.7760626077651978,0.10237608850002289
1718607430056822300,9.813822265625,-0.05833721160888672,-0.6364616751670837,-0.003494061529636383
1718607430135021600,9.892021484375,0.05165576934814453,-0.6803786158561707,-0.013683140277862549
1718607430213221000,9.97022119140625,-0.02005481719970703,-0.5633305907249451,-0.0377960279583931
1718607430291420400,10.04842041015625,0.23584556579589844,-0.5920127034187317,0.08549477905035019
1718607430369620000,10.126619873046875,0.12280559539794922,-0.5981671810150146,-0.003962419927120209
1718607430447819300,10.2048193359375,-0.21199893951416016,-0.5752260088920593,-0.12061534821987152
1718607430526018800,10.283018798828126,0.12697887420654297,-0.5839928388595581,0.07362484931945801
1718607430604218000,10.361218017578125,0.145355224609375,-0.48488563299179077,-0.08833000063896179
1718607430682417700,10.439417724609376,0.2895393371582031,-0.6855227947235107,0.04758105427026749
1718607430760617000,10.517616943359375,0.17511653900146484,-0.7008299231529236,0.11545237898826599
1718607430838816500,10.59581640625,-0.19607067108154297,-0.686484158039093,-0.2990371882915497
1718607430917015800,10.674015869140625,0.2112445831298828,-0.6074672937393188,-0.01988290250301361
1718607430995215400,10.75221533203125,0.03872203826904297,-0.5458261370658875,0.04151950031518936
1718607431073414700,10.83041455078125,0.21799468994140625,-0.5797116160392761,0.08873938769102097
1718607431151614200,10.9086142578125,0.25211524963378906,-0.5009838938713074,0.2625693082809448
1718607431229813500,10.9868134765625,-0.19209957122802734,-0.7134434580802917,-0.22058628499507904
1718607431308013000,11.065012939453124,0.0028886795043945312,-0.535827100276947,-0.16045042872428894
1718607431386212400,11.14321240234375,0.032036781311035156,-0.5981534719467163,-0.13181909918785095
1718607431464412000,11.221411865234375,0.08319091796875,-0.6050739288330078,0.1928718388080597
1718607431542611200,11.299611083984376,0.029366493225097656,-0.4765981435775757,0.0967458188533783
1718607431620810800,11.377810791015625,0.3134584426879883,-0.5403251647949219,-0.04225097596645355
1718607431699010300,11.45601025390625,-0.012355804443359375,-0.370309054851532,-0.22098290920257568
1718607431777209600,11.534209716796875,0.09256839752197266,-0.349287211894989,0.07692582905292511
1718607431855409200,11.6124091796875,-0.050078392028808594,-0.444016695022583,0.2294347882270813
1718607431933608400,11.6906083984375,0.054668426513671875,-0.34209269285202026,-0.1333271712064743
1718607432011808000,11.76880810546875,-0.072265625,-0.22263175249099731,0.06418120861053467
1718607432090007300,11.84700732421875,0.3551511764526367,-0.36288386583328247,0.12640099227428436
1718607432168206800,11.925206787109374,0.13962936401367188,-0.3363837003707886,-0.054728537797927856
1718607432246406100,12.00340625,0.18656253814697266,-0.4602571725845337,-0.10033908486366272
1718607432324605700,12.081605712890624,-0.21523761749267578,-0.19218593835830688,-0.08906787633895874
1718607432402805200,12.15980517578125,0.10622978210449219,-0.38632553815841675,0.08276551961898804
1718607432481004500,12.238004638671875,-0.09024715423583984,-0.2582544684410095,-0.030315637588500977
1718607432559204000,12.3162041015625,-0.020346641540527344,-0.46506237983703613,-0.28942033648490906
1718607432637403400,12.3944033203125,0.08932876586914062,-0.3159652352333069,-0.08191177248954773
1718607432715603000,12.47260302734375,0.3039407730102539,-0.3598750829696655,0.06855723261833191
1718607432793802200,12.55080224609375,0.11058807373046875,-0.13735878467559814,0.042479485273361206
1718607432872001800,12.629001708984376,0.18658161163330078,-0.24421775341033936,0.020614653825759888
1718607432950201300,12.707201416015625,0.0973501205444336,-0.14248985052108765,0.1630016714334488
1718607433028400600,12.785400634765624,0.022817611694335938,-0.3217964172363281,-0.05929890275001526
1718607433106600200,12.86360009765625,-0.2622842788696289,-0.32844042778015137,-0.04828040301799774
1718607433184799500,12.941799560546874,0.26670360565185547,-0.16441696882247925,0.12955257296562195
1718607433262999000,13.0199990234375,0.23933982849121094,-0.15422022342681885,0.028811663389205933
1718607433341198300,13.0981982421875,0.04563713073730469,-0.049577295780181885,-0.12785252928733826
1718607433419398000,13.17639794921875,0.28806495666503906,-0.3234836459159851,0.0022885501384735107
1718607433497597400,13.254597412109375,0.18928813934326172,-0.15780729055404663,0.05445301532745361
1718607433575796700,13.332796630859375,-0.11689281463623047,0.053803980350494385,-0.11195090413093567
1718607433653996300,13.410996337890625,-0.26203346252441406,-0.3770003318786621,-0.007227003574371338
1718607433732195600,13.489195556640626,0.21896648406982422,-0.2649034261703491,-0.0746869146823883
1718607433810395100,13.56739501953125,0.014646530151367188,0.05289947986602783,0.003415435552597046
1718607433888594400,13.645594482421876,0.17426204681396484,0.025624632835388184,0.0636584460735321
1718607433966794000,13.7237939453125,0.3483610153198242,-0.2939521074295044,-0.01853814721107483
1718607434044993500,13.80199365234375,-0.07160186767578125,0.028561532497406006,-0.16095903515815735
1718607434123192800,13.88019287109375,0.16286659240722656,0.037171900272369385,0.16184861958026886
1718607434201392400,13.958392333984374,-0.03175067901611328,-0.3880465626716614,0.05554163455963135
1718607434279591700,14.036591796875,0.28769588470458984,-0.011763036251068115,-0.16891881823539734
1718607434357791200,14.114791259765624,-0.12617969512939453,0.029799044132232666,0.21737180650234222
1718607434435990800,14.19299072265625,0.10983753204345703,-0.0669146180152893,0.3389216959476471
1718607434514190000,14.271190185546875,0.36037349700927734,-0.09337067604064941,0.0857597142457962
1718607434592389600,14.3493896484375,0.051856040954589844,0.08238911628723145,0.05627942085266113
1718607434670589000,14.4275888671875,0.18269729614257812,0.09654206037521362,0.3820340037345886
1718607434748788500,14.50578857421875,0.17288494110107422,-0.39281028509140015,-0.09805214405059814
1718607434826988000,14.583988037109375,-0.0981588363647461,0.07813364267349243,-0.24099653959274292
1718607434905187300,14.662187255859376,-0.005227088928222656,0.04462248086929321,-0.0896601676940918
1718607434983387000,14.740386962890625,-0.04272651672363281,-0.37127792835235596,-0.14249131083488464
1718607435061586400,14.81858642578125,0.054859161376953125,0.05001962184906006,-0.17045354843139648
1718607435139785700,14.89678564453125,0.2791738510131836,0.09894102811813354,0.17326620221138
1718607435217985300,14.9749853515625,0.6570062637329102,-0.48895591497421265,0.1558176577091217
1718607435296184600,15.0531845703125,0.8625555038452148,-0.08385306596755981,0.1808311939239502
1718607435374384000,15.131384033203124,0.5687713623046875,0.13007378578186035,0.0601847767829895
1718607435452583700,15.209583740234375,0.1255941390991211,-0.3099978566169739,0.18138998746871948
1718607435530783000,15.287782958984375,-0.10753345489501953,0.059168457984924316,0.0791197419166565
1718607435608982500,15.365982421875,-0.39356040954589844,0.13822942972183228,-0.04934534430503845
1718607435687181800,15.444181884765625,-0.3101158142089844,-0.20796173810958862,-0.07136574387550354
1718607435765381400,15.52238134765625,0.13710308074951172,-0.019927799701690674,-0.20302793383598328
1718607435843581000,15.600580810546875,0.1570262908935547,0.16107690334320068,-0.30318981409072876
1718607435921780200,15.6787802734375,0.3626718521118164,-0.165471613407135,0.05962243676185608
1718607435999979800,15.756979736328125,0.38115882873535156,-0.019326448440551758,0.1059090793132782
1718607436078179300,15.835179443359374,0.09035110473632812,0.20046114921569824,0.26873135566711426
1718607436156378600,15.913378662109375,-0.25289058685302734,-0.17877072095870972,0.36455750465393066
1718607436234578200,15.991578125,-0.20798873901367188,-0.06976860761642456,0.07206377387046814
1718607436312777700,16.06977783203125,-0.1323995590209961,0.20481586456298828,-0.13494762778282166
1718607436390977000,16.14797705078125,0.06795024871826172,-0.048146724700927734,0.06601321697235107
1718607436469176600,16.226176513671874,0.4054527282714844,-0.17780637741088867,-0.127097487449646
1718607436547376000,16.304376220703126,0.2301502227783203,0.4058501422405243,0.13563501834869385
1718607436625575400,16.382575439453124,0.15744495391845703,0.024303674697875977,0.4258725643157959
1718607436703775000,16.46077490234375,0.0892496109008789,-0.28983503580093384,0.15488022565841675
1718607436781974300,16.538974365234374,-0.12224292755126953,0.0343937873840332,0.1306976079940796
1718607436860173800,16.617173828125,0.21198272705078125,-0.05850750207901001,0.1260567605495453
1718607436938373400,16.695373291015624,0.03818798065185547,0.02122277021408081,0.09884220361709595
1718607437016572700,16.77357275390625,-0.2816753387451172,0.334090918302536,0.214781254529953
1718607437094772200,16.851772216796874,0.3114738464355469,-0.1424543261528015,0.4521558880805969
1718607437172971800,16.9299716796875,-0.1382455825805664,0.0165136456489563,0.16166427731513977
1718607437251171300,17.00817138671875,0.08372306823730469,0.05585986375808716,0.43738609552383423
1718607437329370600,17.08637060546875,0.3713712692260742,0.048717379570007324,-0.001591503620147705
1718607437407570200,17.164570068359374,-0.03232765197753906,0.3855224549770355,0.06475132703781128
1718607437485769700,17.242769775390624,-0.017633438110351562,-0.21748417615890503,0.02442339062690735
1718607437563969000,17.320968994140625,-0.34900665283203125,0.06483989953994751,-0.15546143054962158
1718607437642168600,17.39916845703125,-0.1981363296508789,0.31353962421417236,-0.061757564544677734
1718607437720367900,17.477367919921875,0.4092721939086914,-0.011720120906829834,0.18133631348609924
1718607437798567400,17.5555673828125,0.1824016571044922,0.04567432403564453,0.13875111937522888
1718607437876767000,17.63376708984375,0.0837249755859375,0.20273998379707336,0.19206002354621887
1718607437954966300,17.71196630859375,0.2746152877807617,0.08753979206085205,-0.05055639147758484
1718607438033165800,17.790165771484375,-0.2656240463256836,0.2287490963935852,-0.2081773579120636
1718607438111365400,17.868365478515624,-0.33843994140625,-0.08026999235153198,-0.12831532955169678
1718607438189564700,17.946564697265625,-0.0951242446899414,0.05629909038543701,0.0700984001159668
1718607438267764200,18.02476416015625,-0.016492843627929688,0.6849498748779297,0.08260452747344971
1718607438345963800,18.1029638671875,0.4855785369873047,0.2847520411014557,0.1442658007144928
1718607438424163300,18.181163330078125,0.6140575408935547,0.17928999662399292,-0.03454148769378662
1718607438502362600,18.259362548828125,0.1886758804321289,0.9285720586776733,0.010076373815536499
1718607438580562200,18.337562255859375,0.5291280746459961,0.5552948117256165,-0.09494248032569885
1718607438658761500,18.415761474609376,-0.008452415466308594,0.6432094573974609,-0.0930737853050232
1718607438736961000,18.4939609375,-0.12536048889160156,0.7003691792488098,0.14958398044109344
1718607438815160600,18.57216064453125,-0.43421077728271484,0.5586738586425781,-0.3609399199485779
1718607438893359900,18.65035986328125,-0.014745712280273438,0.6899020075798035,-0.3598395884037018
1718607438971559400,18.728559326171876,0.29412078857421875,0.9346153736114502,-0.19158542156219482
1718607439049759000,18.806759033203125,-0.3016510009765625,0.8593440055847168,-0.18828624486923218
1718607439127958500,18.88495849609375,-0.15220165252685547,1.7322733402252197,0.19302842020988464
1718607439206157800,18.96315771484375,0.5179910659790039,0.6112266182899475,-0.006614774465560913
1718607439284357400,19.041357421875,0.1782360076904297,1.9262144565582275,0.2451648712158203
1718607439362556700,19.119556640625,0.5835075378417969,1.008138656616211,-0.3324052691459656
1718607439440756200,19.197756103515626,-0.11753177642822266,0.7760132551193237,-0.1681617945432663
1718607439518955800,19.275955810546876,-0.6386919021606445,1.6380013227462769,-0.30432355403900146
1718607439597155000,19.354155029296876,-0.1369457244873047,1.6874334812164307,0.023705750703811646
1718607439675354600,19.432354736328126,-0.2423992156982422,1.229926586151123,-0.2848028242588043
1718607439753554200,19.51055419921875,0.24481773376464844,1.329050064086914,0.041932612657547
1718607439831753500,19.58875341796875,0.44149112701416016,1.370239019393921,-0.18157973885536194
1718607439909953000,19.666953125,0.39974117279052734,1.3598130941390991,-0.25026002526283264
1718607439988152600,19.745152587890626,0.2652320861816406,1.6976860761642456,-0.048415541648864746
1718607440066351900,19.823351806640623,-0.030107498168945312,1.5251692533493042,-0.20471355319023132
1718607440144551400,19.901551513671876,0.06809711456298828,1.596832513809204,0.04520295560359955
1718607440222751000,19.9797509765625,0.29419612884521484,2.0413196086883545,0.21174263954162598
1718607440300950300,20.0579501953125,-0.1414813995361328,1.9823558330535889,-0.23432976007461548
1718607440379149800,20.13614990234375,-0.09960365295410156,1.8154983520507812,-0.08118975162506104
1718607440457349000,20.21434912109375,0.4588298797607422,1.6202740669250488,-0.19337120652198792
1718607440535548700,20.292548583984374,-0.3674802780151367,2.035123825073242,-0.01937440037727356
1718607440613748200,20.370748291015627,-0.06560611724853516,1.974167823791504,0.2479153871536255
1718607440691947500,20.448947509765624,-0.06275272369384766,1.7316521406173706,0.3995218276977539
1718607440770147000,20.52714697265625,-0.14751911163330078,1.569583773612976,0.04629860073328018
1718607440848346600,20.6053466796875,0.058569908142089844,1.353663682937622,0.0007647573947906494
1718607440926546000,20.6835458984375,0.5697622299194336,1.3596473932266235,-0.3649058938026428
1718607441004745500,20.761745361328124,-0.0941324234008789,1.411434531211853,-0.5429961681365967
1718607441082945000,20.839945068359373,0.01955413818359375,1.1278882026672363,-0.2504103183746338
1718607441161144300,20.918144287109374,0.19780731201171875,1.1510331630706787,-0.19954705238342285
1718607441239343900,20.99634375,-0.19791603088378906,1.3450887203216553,-0.17742347717285156
1718607441317543400,21.07454345703125,-0.075653076171875,1.346958875656128,0.30335697531700134
1718607441395742700,21.15274267578125,0.3006734848022461,1.1727077960968018,0.12824779748916626
1718607441473942300,21.2309423828125,-0.14314937591552734,1.2786033153533936,0.16530460119247437
1718607441552141600,21.3091416015625,0.01903533935546875,1.3530761003494263,0.19750307500362396
1718607441630341000,21.387341064453125,0.2594127655029297,1.4976040124893188,-0.1745147407054901
1718607441708540700,21.465540771484374,-0.14322280883789062,1.2837599515914917,-0.36073756217956543
1718607441786740000,21.543739990234375,-0.04637718200683594,1.4293255805969238,0.09272870421409607
1718607441864939500,21.621939453125,0.35553550720214844,1.1118760108947754,-0.12157170474529266
1718607441943139000,21.70013916015625,-0.2042064666748047,0.9825170040130615,-0.24431166052818298
1718607442021338400,21.77833837890625,0.03143119812011719,1.0509731769561768,0.1418052315711975
1718607442099538000,21.856537841796875,0.3172750473022461,0.9112133979797363,0.021454110741615295
1718607442177737500,21.934737548828124,-0.041632652282714844,0.8338748216629028,-0.16039475798606873
1718607442255936800,22.012936767578125,-0.025472640991210938,1.0414295196533203,0.06849715113639832
1718607442334136300,22.09113623046875,-0.2585277557373047,1.088457703590393,-0.10185796022415161
1718607442412335600,22.169335693359375,-0.017978668212890625,0.9063220024108887,-0.24413853883743286
1718607442490535200,22.24753515625,-0.2768259048461914,0.9761478900909424,-0.20484191179275513
1718607442568734700,22.325734619140626,0.07687950134277344,1.3865714073181152,0.009228706359863281
1718607442646934000,22.40393408203125,0.2050466537475586,0.7421271204948425,-0.08716940879821777
1718607442725133600,22.482133544921876,0.27419185638427734,0.8904742002487183,0.0345398485660553
1718607442803333000,22.5603330078125,0.2049083709716797,1.293289303779602,0.007219970226287842
1718607442881532400,22.638532470703126,0.09515571594238281,0.8786044120788574,0.1988072395324707
1718607442959732000,22.71673193359375,0.11426830291748047,0.6896522641181946,0.1160511001944542
1718607443037931300,22.79493115234375,-0.1129913330078125,1.0917186737060547,-0.14415764808654785
1718607443116130800,22.873130859375,0.0646982192993164,1.2759770154953003,0.0580865740776062
1718607443194330400,22.951330322265626,-0.026477813720703125,0.47901999950408936,-0.07681611180305481
1718607443272529700,23.02952978515625,-0.12109756469726562,0.8418319225311279,-0.13670620322227478
1718607443350729200,23.107729248046876,-0.0183563232421875,0.983357310295105,-0.09521397948265076
1718607443428928500,23.185928466796874,-0.032501220703125,0.6526955366134644,0.03805926442146301
1718607443507128000,23.264128173828126,0.21562767028808594,0.495128870010376,0.07969659566879272
1718607443585327600,23.34232763671875,0.06223773956298828,0.6990119218826294,-0.35479533672332764
1718607443663527000,23.42052685546875,-0.05303192138671875,0.7087218761444092,-0.07561227679252625
1718607443741726500,23.4987265625,-0.13319873809814453,0.3996816575527191,0.05855944752693176
1718607443819926000,23.576926025390627,0.07645130157470703,0.4595014452934265,0.04603835940361023
1718607443898125300,23.655125244140624,0.12455272674560547,0.6436322927474976,-0.11147964000701904
1718607443976324900,23.733324951171873,0.22592735290527344,0.6920259594917297,0.13171224296092987
1718607444054524400,23.8115244140625,-0.29503726959228516,0.25045308470726013,0.11084054410457611
1718607444132723700,23.8897236328125,0.3212556838989258,0.4542677402496338,0.1622008979320526
1718607444210923300,23.96792333984375,0.2167043685913086,0.7518436312675476,-0.2832474708557129
1718607444289122600,24.04612255859375,-0.12610530853271484,0.4693615734577179,-0.06186407804489136
1718607444367322000,24.124322021484375,-0.056324005126953125,0.041543811559677124,0.15565693378448486
1718607444445521400,24.202521484375,0.12970256805419922,0.285478413105011,-0.08312016725540161
1718607444523721000,24.280720947265625,0.10310649871826172,0.45342615246772766,-0.23528501391410828
1718607444601920500,24.35892041015625,0.20755290985107422,0.10277330875396729,0.12166643142700195
1718607444680119800,24.437119873046875,0.0048160552978515625,-0.02827051281929016,-0.03764861822128296
1718607444758319400,24.5153193359375,0.25075721740722656,0.2947649657726288,-0.14753833413124084
1718607444836518700,24.5935185546875,0.02012157440185547,0.02330264449119568,-0.1011841893196106
1718607444914718200,24.67171826171875,0.1135568618774414,0.03838667273521423,0.08736881613731384
1718607444992917800,24.749917724609375,0.2196664810180664,0.12945446372032166,0.06568166613578796
1718607445071117000,24.828116943359376,-0.016539573669433594,-0.12480637431144714,-0.022740930318832397
1718607445149316600,24.906316650390625,0.30547332763671875,-0.014326035976409912,-0.11980241537094116
1718607445227516200,24.98451611328125,0.061862945556640625,0.5379981398582458,0.0257626473903656
1718607445305715500,25.062715576171875,-0.022225379943847656,-0.30800294876098633,0.12136872112751007
1718607445383915000,25.1409150390625,0.340057373046875,0.04017309844493866,0.4065985381603241
1718607445462114300,25.2191142578125,0.1790170669555664,0.2680894434452057,-0.10704180598258972
1718607445540313900,25.29731396484375,-0.01027679443359375,0.23056894540786743,-0.028550654649734497
1718607445618513400,25.375513427734376,-0.000392913818359375,-0.45629650354385376,0.20367994904518127
1718607445696712700,25.453712646484377,0.1621837615966797,-0.42398831248283386,0.1212296187877655
1718607445774912300,25.531912353515626,0.009084701538085938,0.2457883358001709,-0.08418458700180054
1718607445853111600,25.610111572265627,-0.19720745086669922,-0.0673065334558487,-0.10354411602020264
1718607445931320000,25.688320068359374,0.06147289276123047,-0.06667385995388031,0.18384191393852234
1718607446009519400,25.766519287109375,0.06743812561035156,-0.16209332644939423,-0.09664100408554077
1718607446087719000,25.844718994140624,0.28373241424560547,0.0861402153968811,-0.04156142473220825
1718607446165918200,25.922918212890625,0.3192129135131836,0.010027527809143066,-0.240240216255188
1718607446244117800,26.00111767578125,0.14533615112304688,-0.3097715675830841,0.02004873752593994
1718607446322317300,26.0793173828125,-0.022683143615722656,-0.3640808165073395,0.09827640652656555
1718607446400516600,26.1575166015625,0.264556884765625,-0.48708289861679077,0.014682769775390625
1718607446478716200,26.235716064453126,0.03385734558105469,-0.27176663279533386,-0.182712584733963
1718607446556915500,26.31391552734375,0.1728229522705078,-0.1873350739479065,0.046049922704696655
1718607446635115000,26.392114990234376,0.3807029724121094,-0.37056154012680054,0.2703234851360321
1718607446713314600,26.470314453125,0.31956005096435547,-0.36241409182548523,0.22935687005519867
1718607446791513900,26.548513916015626,0.2434539794921875,-0.14518359303474426,-0.015640199184417725
1718607446869713400,26.62671337890625,0.1314716339111328,-0.2430833876132965,-0.046716928482055664
1718607446947912700,26.70491259765625,-0.16474151611328125,-0.39299386739730835,0.05584743618965149
1718607447026112300,26.7831123046875,-0.03833961486816406,-0.5919758677482605,0.0034170448780059814
1718607447104311600,26.8613115234375,0.15277862548828125,-0.24260759353637695,-0.07381054759025574
1718607447182511000,26.939510986328123,-0.11262989044189453,0.20823585987091064,-0.2982427477836609
1718607447260710700,27.017710693359376,-0.14170074462890625,-0.4018544554710388,0.03132450580596924
1718607447338910000,27.095909912109374,-0.030885696411132812,-0.26945579051971436,0.06387150287628174
1718607447417109500,27.174109619140626,-0.04040813446044922,-0.43484964966773987,0.009406358003616333
1718607447495308800,27.252308837890624,0.049307823181152344,0.335073322057724,-0.09140437841415405
1718607447573508400,27.33050830078125,-0.10832023620605469,-0.4620324969291687,0.06660974025726318
1718607447651707600,27.408707763671874,-0.18146324157714844,-0.37635087966918945,0.08315491676330566
1718607447729907200,27.4869072265625,0.2697420120239258,-0.2915697693824768,-0.052366942167282104
1718607447808106800,27.565106689453124,0.015941619873046875,-0.09905831515789032,-0.3306950628757477
1718607447886306000,27.64330615234375,0.1998605728149414,-0.12099985033273697,0.025917738676071167
1718607447964505600,27.721505615234374,-0.12482833862304688,-0.2784936726093292,0.07805779576301575
1718607448042705000,27.799704833984375,0.2652568817138672,-0.3405962586402893,0.10910496115684509
1718607448120904400,27.877904541015624,0.20106029510498047,-0.04381340742111206,-0.15922218561172485
1718607448199103700,27.956103759765625,0.12061786651611328,0.07742525637149811,-0.015563517808914185
1718607448277303300,28.03430322265625,-0.1026763916015625,-0.3895723223686218,0.17955732345581055
1718607448355502600,28.112502685546875,0.2434072494506836,-0.5075262784957886,0.2832295298576355
1718607448433702100,28.1907021484375,0.25794315338134766,0.04870046675205231,-0.05840995907783508
1718607448511901400,28.2689013671875,0.3245115280151367,-0.293456107378006,-0.1122317910194397
1718607448590101000,28.34710107421875,0.009207725524902344,-0.24672488868236542,0.06192854046821594
1718607448668300500,28.425300537109376,0.15013599395751953,-0.4648761749267578,0.1020176112651825
1718607448746499800,28.503499755859377,0.4250345230102539,-0.07098983228206635,-0.21223315596580505
1718607448824699400,28.581699462890626,0.22308349609375,-0.1584589183330536,0.020422637462615967
1718607448902898700,28.659898681640627,-0.2990236282348633,-0.1888262927532196,0.2878892719745636
1718607448981098200,28.73809814453125,0.35596561431884766,-0.567421019077301,0.15337736904621124
1718607449088861700,28.84586181640625,0.2245159149169922,0.02943044900894165,-0.2541052997112274
1718607449137736400,28.894736328125,0.07486534118652344,0.013553619384765625,-0.12441352009773254
1718607449186611000,28.94361083984375,0.18997859954833984,0.0022435784339904785,0.08855831623077393
1718607449235485700,28.992485595703126,-0.1573333740234375,-0.1621587872505188,0.11103940010070801
1718607449284360200,29.041360107421873,0.0063800811767578125,-0.4663509130477905,-0.02794259786605835
1718607449333235000,29.09023486328125,0.11917304992675781,-0.5157871246337891,0.031790196895599365
1718607449382109700,29.139109619140626,-0.03142356872558594,0.09808118641376495,-0.07343807816505432
1718607449430984200,29.187984130859373,0.0355987548828125,0.30815452337265015,-0.2186240553855896
1718607449479859000,29.23685888671875,-0.222076416015625,-0.029442816972732544,-0.21701547503471375
1718607449528733400,29.2857333984375,0.09179973602294922,-0.28584885597229004,0.11478781700134277
1718607449577608200,29.334608154296873,-0.19076061248779297,-0.3633270561695099,0.19955380260944366
1718607449626482700,29.383482666015624,0.460662841796875,-0.4693096876144409,0.024280309677124023
1718607449675357400,29.432357421875,0.07388019561767578,-0.037540048360824585,0.014101982116699219
1718607449724232200,29.481232177734373,0.30240917205810547,-0.02144007384777069,-0.23317071795463562
1718607449773106700,29.530106689453124,-0.06226348876953125,-0.0500493198633194,-0.25768211483955383
1718607449821981400,29.5789814453125,0.31818580627441406,-0.010449662804603577,-0.07796153426170349
1718607449870856000,29.62785595703125,0.07070541381835938,-0.04783061146736145,-0.03277561068534851
1718607449919730700,29.676730712890624,0.019134521484375,-0.34984490275382996,0.010131150484085083
1718607449968605400,29.72560546875,-0.03344917297363281,-0.4529375731945038,0.03718912601470947
1718607450017480000,29.77447998046875,0.20972919464111328,-0.2606099247932434,0.07346230745315552
1718607450066354700,29.823354736328124,0.1886301040649414,0.2155878245830536,-0.15852537751197815
1718607450115229200,29.872229248046875,-0.04720020294189453,0.14807680249214172,-0.2085726261138916
1718607450164104000,29.92110400390625,-0.029503822326660156,-0.377166748046875,-0.0865914523601532
1718607450212978400,29.969978515625,-0.09540557861328125,-0.3566220700740814,0.2798962891101837
1718607450261853200,30.018853271484375,0.1526479721069336,-0.4923242926597595,0.3367989957332611
1718607450310727700,30.067727783203125,0.1410846710205078,-0.08393975347280502,0.2295752763748169
1718607450359602400,30.1166025390625,0.0076198577880859375,-0.020941734313964844,0.09078149497509003
1718607450408477200,30.165477294921875,0.1354513168334961,0.23633027076721191,-0.06780746579170227
1718607450457351700,30.2143515625,0.12487602233886719,0.03991973400115967,0.12664076685905457
1718607450506226400,30.263226318359376,-0.05936908721923828,-0.059017471969127655,0.12498533725738525
1718607450555101000,30.312100830078126,-0.17221450805664062,-0.24587653577327728,-0.026137351989746094
1718607450603975700,30.3609755859375,0.2021322250366211,-0.5145637392997742,-0.04093974828720093
1718607450652850200,30.40985009765625,0.2190866470336914,-0.25596874952316284,0.02082487940788269
1718607450701725000,30.458724853515626,0.16213226318359375,0.1331283301115036,-0.19503074884414673
1718607450750599400,30.507599365234373,-0.1702413558959961,0.3765668272972107,-0.36234089732170105
1718607450799474200,30.55647412109375,0.022255897521972656,-0.046623408794403076,-0.2891658544540405
1718607450848349000,30.605348876953126,0.15863895416259766,-0.48960793018341064,0.05217927694320679
1718607450897223400,30.654223388671873,0.0042724609375,-0.3194747567176819,0.17659132182598114
1718607450946098200,30.70309814453125,0.003975868225097656,-0.21075162291526794,0.05684521794319153
1718607450994972700,30.75197265625,-0.21542072296142578,0.013365447521209717,-0.08982649445533752
1718607451043847400,30.800847412109373,0.27293872833251953,-0.07735399901866913,-0.19027483463287354
1718607451092722000,30.849721923828124,0.2780437469482422,-0.26004427671432495,-0.01163586974143982
1718607451141596700,30.8985966796875,-0.04099845886230469,-0.14129795134067535,-0.06403270363807678
1718607451190471400,30.947471435546873,-0.316253662109375,-0.12093144655227661,-0.08752503991127014
1718607451239346000,30.996345947265624,-0.021445274353027344,-0.1551656424999237,0.05200505256652832
1718607451288220700,31.045220703125,0.1316671371459961,-0.11216703802347183,0.3394537568092346
1718607451337095200,31.09409521484375,0.14359188079833984,-0.16327925026416779,0.16565629839897156
1718607451385970000,31.142969970703124,0.1908092498779297,-0.021242186427116394,-0.14456221461296082
1718607451434844400,31.191844482421875,0.07257938385009766,0.13408303260803223,0.025021851062774658
1718607451483719200,31.24071923828125,-0.034262657165527344,0.0034073293209075928,0.22469337284564972
1718607451532593700,31.28959375,0.11572265625,-0.24960795044898987,0.11260643601417542
1718607451581468400,31.338468505859375,0.46329402923583984,-0.37114113569259644,0.019974738359451294
1718607451630343000,31.387343017578125,0.2812767028808594,-0.1763651818037033,-0.11979514360427856
1718607451679217700,31.4362177734375,0.009185791015625,0.2649315595626831,-0.270562082529068
1718607451728092400,31.485092529296875,0.18699073791503906,0.18754135072231293,-0.10559582710266113
1718607451776967000,31.533966796875,-0.07152843475341797,-0.16508978605270386,-0.049396365880966187
1718607451825841700,31.582841552734376,-0.16689395904541016,-0.34398922324180603,0.06556034088134766
1718607451874716200,31.631716064453126,-0.31052398681640625,-0.42788180708885193,0.013067752122879028
1718607451923591000,31.6805908203125,0.1688365936279297,-0.14939184486865997,-0.048823922872543335
1718607451972465400,31.72946533203125,0.09418487548828125,0.05645163357257843,-0.18059048056602478
1718607452021340200,31.778340087890626,-0.1091012954711914,0.10073162615299225,-0.40492352843284607
1718607452070214700,31.827214599609373,-0.021276473999023438,-0.27875638008117676,-0.31638428568840027
1718607452119089400,31.87608935546875,-0.020336151123046875,-0.039901599287986755,-0.022697001695632935
1718607452167964000,31.9249638671875,-0.14828205108642578,-0.0910721942782402,0.2675498425960541
1718607452216838700,31.973838623046873,0.26769161224365234,-0.21768242120742798,0.17819584906101227
1718607452265713400,32.02271337890625,0.2513561248779297,-0.07137614488601685,0.2126781940460205
1718607452314588000,32.071587890625,0.4527244567871094,-0.08232367038726807,0.2155071496963501
1718607452363462700,32.12046264648438,-0.01804065704345703,0.12285405397415161,0.31292223930358887
1718607452412337200,32.16933715820313,0.15336036682128906,-0.05808619409799576,0.3377155065536499
1718607452461212000,32.2182119140625,-0.2119302749633789,-0.2038368582725525,0.20533350110054016
1718607452510086400,32.26708642578125,0.029458045959472656,-0.30913496017456055,0.0098714679479599
1718607452558961200,32.315961181640624,0.4179821014404297,-0.24283677339553833,0.0034054070711135864
1718607452607835600,32.364835693359375,0.051787376403808594,0.1247393935918808,-0.47625458240509033
1718607452656710400,32.41371044921875,-0.14470672607421875,0.0794026255607605,-0.5910226106643677
1718607452705585000,32.4625849609375,0.08785724639892578,-0.19997404515743256,-0.4569869637489319
1718607452754459600,32.51145971679688,0.3699064254760742,-0.23887380957603455,-0.04781261086463928
1718607452803334100,32.56033422851562,0.0015420913696289062,-0.04901932179927826,-0.08997392654418945
1718607452852209000,32.609208984375,-0.13003158569335938,-0.12348206341266632,-0.3810268044471741
1718607452901083600,32.658083740234375,-0.05347919464111328,-0.04373742640018463,-0.19765013456344604
1718607452949958100,32.706958251953125,0.11899852752685547,0.03996287286281586,0.07718551158905029
1718607452998832600,32.75583251953125,0.07467937469482422,-0.0515674352645874,0.19691838324069977
1718607453047707400,32.804707275390626,-0.005889892578125,-0.11540645360946655,0.19669245183467865
1718607453096582100,32.85358203125,-0.14493465423583984,-0.09441796690225601,0.33642899990081787
1718607453145456600,32.90245654296875,-0.2646627426147461,0.05666296184062958,0.1893267035484314
1718607453194331400,32.95133129882812,0.20798110961914062,-0.4082607626914978,0.24991875886917114
1718607453243206000,33.00020581054687,0.19792652130126953,-0.4683411419391632,0.005833238363265991
1718607453292080600,33.04908056640625,0.2502584457397461,0.28456878662109375,-0.004664137959480286
1718607453340955100,33.097955078125,0.23855876922607422,0.4293573498725891,-0.08656303584575653
1718607453389830000,33.14682983398438,-0.1754131317138672,-0.15588992834091187,-0.11081400513648987
1718607453438704400,33.19570434570313,0.001796722412109375,-0.44344115257263184,-0.140469491481781
1718607453487579100,33.2445791015625,0.19702625274658203,-0.3861544132232666,-0.01479882001876831
1718607453536453600,33.29345361328125,-0.09691429138183594,0.09200997650623322,-0.048619091510772705
1718607453585328400,33.342328369140624,-0.1078958511352539,0.15380661189556122,-0.26537346839904785
1718607453634203000,33.391202880859375,0.36108970642089844,0.061103805899620056,-0.029062330722808838
1718607453683077600,33.44007763671875,0.33678627014160156,-0.281063437461853,0.13809777796268463
1718607453731952000,33.4889521484375,-0.4296293258666992,-0.09433872997760773,0.007091715931892395
1718607453780827000,33.53782690429688,-0.4434852600097656,-0.21626891195774078,-0.11507569253444672
1718607453829701600,33.58670166015625,0.47866058349609375,-0.19615185260772705,-0.007008001208305359
1718607453878576000,33.635576171875,0.16522884368896484,-0.012736499309539795,-0.0003938823938369751
1718607453927451000,33.684450927734375,0.2156839370727539,0.14285443723201752,-0.3686453104019165
1718607453976325400,33.733325439453125,-0.09384441375732422,-0.06452101469039917,-0.41737908124923706
1718607454025200000,33.7822001953125,0.13828468322753906,0.047683194279670715,-0.08256743848323822
1718607454074074600,33.83107470703125,-0.1372814178466797,-0.1569783240556717,0.16817529499530792
1718607454122949400,33.87994946289062,-0.08616447448730469,-0.40672391653060913,-0.018420293927192688
1718607454171823900,33.92882397460937,0.2661409378051758,-0.3426918387413025,-0.08047087490558624
1718607454220698600,33.97769873046875,-0.011752128601074219,0.33760273456573486,-0.04437828063964844
1718607454269573000,34.02657299804687,0.2498331069946289,0.3442429304122925,0.028946377336978912
1718607454318447900,34.07544775390625,0.08310413360595703,-0.44882434606552124,0.02240706980228424
1718607454367322400,34.124322265625,0.016139984130859375,-0.3399670124053955,-0.02011679857969284
1718607454416197000,34.17319702148438,-0.2703685760498047,-0.21757245063781738,-0.18759207427501678
1718607454465071600,34.22207153320313,0.17091941833496094,-0.053723081946372986,-0.4579301178455353
1718607454513946400,34.2709462890625,0.12135505676269531,0.12663738429546356,-0.48090869188308716
1718607454562820900,34.31982080078125,0.009241104125976562,0.10430198907852173,-0.5976555943489075
1718607454611695600,34.368695556640624,-0.25335121154785156,-0.08513043820858002,-0.6499689221382141
1718607454660570000,34.417570068359375,0.008004188537597656,-0.1028698980808258,-0.3288300931453705
1718607454709444900,34.46644482421875,-0.10740470886230469,-0.07008647918701172,-0.12090954184532166
1718607454758319400,34.5153193359375,0.057570457458496094,-0.0009108930826187134,-0.2341429442167282
1718607454807194000,34.56419409179688,0.3368215560913086,0.008575260639190674,-0.19033248722553253
1718607454856068600,34.61306860351562,0.24359893798828125,0.1944926232099533,-0.15001006424427032
1718607454904943400,34.661943359375,0.014443397521972656,-0.024606406688690186,-0.048873402178287506
1718607454953817900,34.71081787109375,0.14498138427734375,-0.09542890638113022,0.1085100769996643
1718607455002692600,34.759692626953125,-0.020658493041992188,-0.17233870923519135,0.08494530618190765
1718607455051567000,34.808567138671876,-0.029201507568359375,-0.2366643100976944,-0.3039449155330658
1718607455100441900,34.85744189453125,-0.04894256591796875,-0.11003021895885468,-0.5387067198753357
1718607455149316400,34.90631640625,-0.023309707641601562,0.15428318083286285,-0.5801125168800354
1718607455198191000,34.95519116210937,-0.045584678649902344,0.15682360529899597,-0.6537249088287354
1718607455247065600,35.00406567382812,0.05590248107910156,-0.058228328824043274,-0.41513288021087646
1718607455295940400,35.0529404296875,0.010934829711914062,-0.22011509537696838,-0.2757158577442169
1718607455344814800,35.10181494140625,-0.08208084106445312,-0.10202212631702423,-0.270087867975235
1718607455393689600,35.150689697265626,-0.013919830322265625,-0.15254627168178558,-0.361126184463501
1718607455442564000,35.19956420898438,0.2635211944580078,-0.1876894235610962,-0.4041818678379059
1718607455491438800,35.24843896484375,-0.039707183837890625,-0.07502926886081696,-0.6083139181137085
1718607455540313300,35.29731323242188,0.02938365936279297,0.06631544232368469,-0.80398029088974
1718607455589188000,35.34618798828125,-0.1262807846069336,-0.06695669889450073,-0.8005470633506775
1718607455638062600,35.3950625,0.1863393783569336,-0.1679324209690094,-0.7917287945747375
1718607455686937300,35.443937255859375,-0.008503913879394531,-0.13362795114517212,-0.7822647094726562
1718607455735811800,35.492811767578125,0.27375125885009766,-0.16996857523918152,-0.7291131019592285
1718607455784686600,35.5416865234375,0.12270164489746094,-0.12138471007347107,-0.5192479491233826
1718607455833561000,35.59056103515625,0.33859920501708984,-0.3025403618812561,-0.48069411516189575
1718607455882435800,35.63943579101562,0.29299068450927734,-0.002682611346244812,-0.5940166711807251
1718607455931310300,35.68831030273437,0.16963768005371094,0.06977896392345428,-0.7157253623008728
1718607455980185000,35.73718505859375,-0.028209686279296875,-0.11763612180948257,-0.8008239269256592
1718607456029059600,35.7860595703125,-0.06841850280761719,-0.15367746353149414,-0.7420048117637634
1718607456077934300,35.834934326171876,0.16501522064208984,-0.14654351770877838,-0.714553713798523
1718607456126808800,35.883808837890626,0.010750770568847656,-0.08775277435779572,-0.8738355040550232
1718607456175683600,35.93268359375,0.031124114990234375,-0.023334354162216187,-1.0680769681930542
1718607456224558000,35.98155810546875,0.2216930389404297,-0.0013773590326309204,-1.0444254875183105
1718607456273432800,36.03043286132812,0.09382343292236328,0.09864938259124756,-0.8568354249000549
1718607456322307300,36.07930737304687,-0.048829078674316406,-0.09433229267597198,-0.8715140223503113
1718607456371182000,36.12818212890625,0.09993457794189453,-0.5249565243721008,-0.8533263206481934
1718607456420056600,36.177056640625,0.34807395935058594,-0.3071286082267761,-0.7870997786521912
1718607456468931000,36.22593115234375,0.11468982696533203,0.5385260581970215,-0.8692164421081543
1718607456517805800,36.27480590820313,0.17569828033447266,0.41392695903778076,-1.0054957866668701
1718607456566680600,36.3236806640625,-0.08131599426269531,0.6664026975631714,-1.0098563432693481
1718607456615555000,36.37255517578125,-0.4046783447265625,-0.07466086745262146,-0.705195963382721
1718607456664429600,36.4214296875,0.3780031204223633,-0.6543101668357849,-0.8435485363006592
1718607456713304300,36.47030419921875,-0.5348834991455078,-0.4341757297515869,-0.802864134311676
1718607456762179000,36.519178955078125,0.5013542175292969,-0.6947467923164368,-1.011641025543213
1718607456811053600,36.568053466796876,0.3361949920654297,0.4763799011707306,-1.199689269065857
1718607456859928000,36.616927978515626,-0.36272621154785156,0.8491398096084595,-0.9810016751289368
1718607456908802800,36.665802734375,0.48538780212402344,-0.3491657078266144,-1.0186643600463867
1718607456957677300,36.71467724609375,-0.21779727935791016,-0.8189616799354553,-0.7945277094841003
1718607457006552000,36.76355200195312,0.5597438812255859,-0.9161507487297058,-0.642925500869751
1718607457055426600,36.81242651367187,0.11748313903808594,-0.11447965353727341,-0.934519350528717
1718607457104301300,36.86130126953125,0.23887157440185547,0.2106277495622635,-1.0422556400299072
1718607457153175800,36.91017578125,0.15491962432861328,0.1744968593120575,-1.2814054489135742
1718607457202050600,36.95905053710938,0.0873880386352539,-0.6169381737709045,-0.9738695621490479
1718607457250925000,37.00792504882813,-0.038826942443847656,-0.39882582426071167,-0.8436405062675476
1718607457299799800,37.0567998046875,-0.06173133850097656,-0.5179998874664307,-0.8874173164367676
1718607457348674300,37.10567431640625,-0.011534690856933594,-0.4799237847328186,-1.142167329788208
1718607457397549000,37.154549072265624,0.37787914276123047,0.08194170892238617,-1.161782145500183
1718607457446423600,37.203423583984375,-0.15017318725585938,0.019838541746139526,-1.2110189199447632
1718607457495298300,37.25229833984375,0.139190673828125,0.022809073328971863,-1.1279222965240479
1718607457544172800,37.3011728515625,-0.10287094116210938,-0.2352319359779358,-0.861500084400177
1718607457593047600,37.35004760742188,0.21675872802734375,-0.25016844272613525,-0.8452264070510864
1718607457641922000,37.39892211914062,-0.0256195068359375,-0.13556043803691864,-0.7771403789520264
1718607457690796500,37.44779663085937,0.08433723449707031,-0.09842248260974884,-0.7259935140609741
1718607457739671300,37.49667138671875,0.2569856643676758,-0.07510790973901749,-0.6737480163574219
1718607457788545800,37.5455458984375,0.20162582397460938,-0.1601191759109497,-0.8044531345367432
1718607457837420500,37.594420654296876,0.04667091369628906,-0.13825157284736633,-1.0287775993347168
1718607457886295000,37.643294921875,-0.17450237274169922,0.03982372581958771,-1.0709075927734375
1718607457935169800,37.69216967773438,0.2613515853881836,-0.0666118711233139,-1.0859235525131226
1718607457984044300,37.74104418945313,-0.14042091369628906,-0.30178260803222656,-0.988355278968811
1718607458032919000,37.7899189453125,0.36849403381347656,-0.34006690979003906,-1.0383365154266357
1718607458081793500,37.83879345703125,-0.1380167007446289,0.01374998688697815,-1.0832817554473877
1718607458130668300,37.887668212890624,0.08773136138916016,-0.002124413847923279,-1.148772954940796
1718607458179542800,37.936542724609374,0.1089181900024414,-0.04353904724121094,-1.3125008344650269
1718607458228417300,37.985417236328125,0.09459686279296875,-0.18435972929000854,-1.3478208780288696
1718607458277292000,38.0342919921875,0.1541614532470703,-0.24650131165981293,-1.184885025024414
1718607458326166500,38.08316650390625,-0.05921173095703125,-0.3104667663574219,-1.1160212755203247
1718607458375041300,38.13204125976562,0.2866353988647461,0.03665818274021149,-1.1433426141738892
1718607458423915800,38.18091577148437,0.2317829132080078,0.12512728571891785,-0.9571108222007751
1718607458472790500,38.22979052734375,0.07037544250488281,-0.08330444246530533,-0.9292624592781067
1718607458521665000,38.2786650390625,0.012936592102050781,-0.20837414264678955,-0.9144856333732605
1718607458570539800,38.327539794921876,-0.0066680908203125,-0.2884160280227661,-0.7889952659606934
1718607458619414300,38.376414306640626,-0.03183269500732422,-0.16526535153388977,-0.7649415135383606
1718607458668289000,38.4252890625,0.012478828430175781,-0.09910757839679718,-0.8719053864479065
1718607458717163500,38.47416357421875,0.09337711334228516,-0.041140131652355194,-0.9601864218711853
1718607458766038000,38.5230380859375,0.06364059448242188,0.04018166661262512,-0.8189041614532471
1718607458814912800,38.57191284179687,0.15836429595947266,-0.061076510697603226,-0.6378841400146484
1718607458863787300,38.620787353515624,0.23804569244384766,-0.06992176920175552,-0.5500723123550415
1718607458912662000,38.669662109375,0.19703292846679688,-0.17596453428268433,-0.3480752110481262
1718607458961536500,38.71853662109375,0.2701129913330078,-0.25805366039276123,-0.4458330273628235
1718607459010411300,38.76741137695313,0.32585716247558594,-0.11368006467819214,-0.5390965342521667
1718607459059285800,38.81628564453125,0.2598390579223633,0.08665145188570023,-0.695543110370636
1718607459108160500,38.86516040039062,0.26399993896484375,0.19424796104431152,-0.6906129121780396
1718607459157035000,38.91403491210937,0.1958904266357422,-0.02133103832602501,-0.6822092533111572
1718607459205909800,38.96290966796875,0.28700733184814453,-0.2978121042251587,-0.6878069639205933
1718607459254784300,39.0117841796875,0.04026603698730469,-0.26645201444625854,-0.7911866903305054
1718607459303658800,39.06065869140625,0.09137248992919922,-0.08286145329475403,-0.9805395007133484
1718607459352533500,39.109533447265626,0.1924123764038086,0.06837944686412811,-1.014641523361206
1718607459401408000,39.15840795898438,0.09626483917236328,-0.049742016941308975,-1.054211974143982
1718607459450282800,39.20728271484375,0.20821475982666016,-0.09950876981019974,-1.0930981636047363
1718607459499157200,39.2561572265625,0.1371784210205078,-0.10858054459095001,-1.1512106657028198
1718607459548032000,39.30503198242187,0.2469348907470703,-0.12583525478839874,-0.9854235649108887
1718607459596906500,39.353906494140624,-0.3475933074951172,-0.16905662417411804,-0.9413239359855652
1718607459645781000,39.402781005859374,0.21502971649169922,-0.06773798912763596,-0.9042590260505676
1718607459694655700,39.45165576171875,-0.11069011688232422,-0.09843137115240097,-0.8735975027084351
1718607459743530200,39.5005302734375,0.059815406799316406,0.10031579434871674,-0.9870327115058899
1718607459792405000,39.54940502929688,-0.08905982971191406,0.013623565435409546,-0.9890997409820557
1718607459841279500,39.59827954101563,0.13869667053222656,-0.15096494555473328,-0.8050302267074585
1718607459890154200,39.647154296875,-0.06606101989746094,-0.25550249218940735,-0.8027259111404419
1718607459939028700,39.69602880859375,0.08173847198486328,-0.33693361282348633,-1.017235517501831
1718607459987903200,39.7449033203125,0.03344535827636719,-0.036682531237602234,-1.1058341264724731
1718607460036778000,39.793778076171876,0.061095237731933594,0.13835078477859497,-1.121281385421753
1718607460085652500,39.842652587890626,0.04530048370361328,0.031612783670425415,-1.230243444442749
1718607460134527200,39.89152734375,0.3447151184082031,-0.07344654947519302,-1.2222445011138916
1718607460183401700,39.94040161132813,0.09111785888671875,0.03864505887031555,-0.9584963321685791
1718607460232276500,39.9892763671875,0.06770801544189453,-0.09737176448106766,-0.9856632351875305
1718607460281151000,40.03815087890625,0.37769508361816406,0.10647577047348022,-1.0537822246551514
1718607460330025500,40.087025390625,0.038321495056152344,0.20776468515396118,-0.9383167028427124
1718607460378900200,40.135900146484374,0.0786733627319336,0.06890884786844254,-0.8846874833106995
1718607460427774700,40.184774658203125,-0.13203144073486328,0.02827564999461174,-0.7191883325576782
1718607460476649500,40.2336494140625,0.20911407470703125,0.11368390172719955,-0.4581741690635681
1718607460525524000,40.28252392578125,0.0002269744873046875,0.19094693660736084,-0.39521169662475586
1718607460574398700,40.33139868164063,0.1562976837158203,-0.06299698352813721,-0.4690428078174591
1718607460623273200,40.38027319335937,0.053099632263183594,0.08242611587047577,-0.48077255487442017
1718607460672147700,40.42914770507812,0.0072574615478515625,0.11179564893245697,-0.386821448802948
1718607460721022500,40.4780224609375,0.1193389892578125,0.27189308404922485,-0.35237008333206177
1718607460769897000,40.52689697265625,0.3056631088256836,0.1257757991552353,-0.3514135479927063
1718607460818771700,40.575771728515626,0.2987394332885742,0.1997351348400116,-0.4570155441761017
1718607460867646200,40.62464624023438,0.07496166229248047,-0.059206970036029816,-0.688401460647583
1718607460916520700,40.67352075195313,0.18141555786132812,-0.24659933149814606,-0.7521637678146362
1718607460965395500,40.7223955078125,0.15589046478271484,-0.13578882813453674,-0.6784836053848267
1718607461014270000,40.77127001953125,0.5457038879394531,0.09677214920520782,-0.8105499148368835
1718607461063144700,40.820144775390624,-0.016187667846679688,0.5749018788337708,-1.0606340169906616
1718607461112019200,40.869019287109374,0.36701011657714844,0.44944968819618225,-1.051646113395691
1718607461160893700,40.917893798828125,0.0035734176635742188,0.04344923794269562,-1.0014545917510986
1718607461209768400,40.9667685546875,0.10714340209960938,-0.4256668984889984,-0.8272450566291809
1718607461258643000,41.015642822265626,0.0973367691040039,-0.25074508786201477,-0.7483227849006653
1718607461307517700,41.064517578125,0.48572349548339844,-0.10773025453090668,-0.6046738028526306
1718607461356392200,41.11339208984375,0.07985782623291016,0.4138031303882599,-0.9331491589546204
1718607461405267000,41.16226684570312,0.3379650115966797,0.39868658781051636,-0.9615157246589661
1718607461454141400,41.21114135742187,-0.023873329162597656,0.15508465468883514,-0.8410992622375488
1718607461503016000,41.260015869140624,0.016050338745117188,-0.3595924973487854,-0.5967264175415039
1718607461551890700,41.308890625,0.004215240478515625,-0.5147010087966919,-0.6095170378684998
1718607461600765200,41.35776513671875,-0.028934478759765625,-0.0017142966389656067,-0.7047685980796814
1718607461649640000,41.40663989257813,-0.1325368881225586,0.15815113484859467,-0.8317634463310242
1718607461698514400,41.45551440429688,0.07993221282958984,0.16742053627967834,-0.8784766793251038
1718607461747389000,41.50438891601563,0.22418880462646484,0.07226089388132095,-0.6085626482963562
1718607461796263700,41.553263671875,0.19489288330078125,-0.15836399793624878,-0.6635127067565918
1718607461845138200,41.60213818359375,-0.021346092224121094,-0.10891910642385483,-0.8065313696861267
1718607461894013000,41.651012939453125,0.40490055084228516,-0.04544840008020401,-0.7064982652664185
1718607461942887400,41.699887451171875,0.23777008056640625,-0.036676131188869476,-0.7244516015052795
1718607461991762000,41.748761962890626,0.2844057083129883,0.1751704216003418,-0.8440669775009155
1718607462040636700,41.79763671875,0.031676292419433594,0.08123496174812317,-0.8161594867706299
1718607462089511200,41.84651123046875,0.23790264129638672,-0.09203223139047623,-0.8397077322006226
1718607462138386000,41.89538598632812,0.286041259765625,-0.06725941598415375,-0.9075840711593628
1718607462187260400,41.94426049804687,0.31630516052246094,0.06795011460781097,-0.9154268503189087
1718607462236135000,41.99313500976562,-0.061130523681640625,0.286419153213501,-0.9803842306137085
1718607462285009700,42.042009765625,-0.08640384674072266,0.3114670217037201,-0.8331049680709839
1718607462333884200,42.09088427734375,0.2456073760986328,0.2989000678062439,-0.6754723787307739
1718607462382759000,42.13975903320313,0.3514690399169922,0.19237181544303894,-0.38994747400283813
1718607462431633400,42.18863330078125,-0.17100906372070312,0.10831620544195175,-0.4468521475791931
1718607462480508000,42.2375078125,0.19669818878173828,-0.009102404117584229,-0.5368647575378418
1718607462529382700,42.28638256835937,-0.046311378479003906,0.3590978980064392,-0.4536779820919037
1718607462578257200,42.33525708007812,-0.07032012939453125,0.42414066195487976,-0.36901742219924927
1718607462627132000,42.3841318359375,0.05568885803222656,0.21923141181468964,-0.41543760895729065
1718607462676006400,42.43300634765625,0.07713031768798828,0.33544424176216125,-0.5202701091766357
1718607462724881000,42.481880859375,0.1467580795288086,0.6901443004608154,-0.463739275932312
1718607462773755600,42.530755615234376,-0.2767934799194336,0.07821208983659744,-0.5059185028076172
1718607462822630100,42.57963012695313,0.31358909606933594,-0.03005264699459076,-0.5661017298698425
1718607462871505000,42.6285048828125,-0.39548683166503906,0.05380847305059433,-0.6345095634460449
1718607462920379400,42.67737939453125,0.5420007705688477,-0.3893582820892334,-1.064744234085083
1718607462969254000,42.72625390625,0.07488155364990234,0.22506657242774963,-1.1130629777908325
1718607463018128600,42.775128662109374,0.21471309661865234,0.3231620192527771,-0.9917473793029785
1718607463067003100,42.824003173828125,-0.03602790832519531,0.27162277698516846,-1.2106759548187256
1718607463115878000,42.8728779296875,-0.04055023193359375,-0.034161925315856934,-0.8473008871078491
1718607463164752400,42.92175244140625,-0.1492748260498047,0.004062585532665253,-0.7035558223724365
1718607463213627000,42.970626953125,-0.20508670806884766,0.08014313876628876,-0.6694678664207458
1718607463262501600,43.01950170898437,0.5308647155761719,-0.07273980975151062,-0.874966025352478
1718607463311376100,43.06837622070312,-0.0766305923461914,0.275828093290329,-0.8576204776763916
1718607463360250600,43.11725073242187,0.3779640197753906,-0.05467990040779114,-0.7180781364440918
1718607463409125400,43.16612548828125,0.03650188446044922,-0.17691448330879211,-0.6012157201766968
1718607463458000000,43.214999755859374,0.037291526794433594,0.26531630754470825,-0.30770593881607056
1718607463506874600,43.26387451171875,0.31200122833251953,0.02371671050786972,-0.3328099548816681
1718607463555749000,43.3127490234375,0.028917312622070312,-0.01722744107246399,-0.3556286692619324
1718607463604623600,43.36162353515625,0.18857192993164062,0.08095046132802963,-0.2822842001914978
1718607463653498400,43.41049829101563,0.10444259643554688,0.18438772857189178,-0.37564417719841003
1718607463702372900,43.45937280273437,0.15442466735839844,0.4707969129085541,-0.5183628797531128
1718607463751247600,43.50824755859375,0.030908584594726562,0.31105461716651917,-0.5179118514060974
1718607463800122000,43.5571220703125,0.009092330932617188,0.08597360551357269,-0.5894912481307983
1718607463848996600,43.60599658203125,0.2200031280517578,-0.12018746137619019,-0.5285341143608093
1718607463897871400,43.654871337890626,0.21068763732910156,0.05750410258769989,-0.6703492999076843
1718607463946745900,43.703745849609376,0.19715499877929688,0.27621230483055115,-0.7425761222839355
1718607463995620400,43.75262036132813,0.18753337860107422,0.3981754779815674,-0.8126477003097534
1718607464044495000,43.8014951171875,0.05123329162597656,0.5521727800369263,-0.8360623121261597
1718607464093369600,43.85036962890625,0.13674259185791016,0.3686515986919403,-0.770201563835144
1718607464142244400,43.89924438476562,-0.1511249542236328,0.2850722074508667,-0.8173831701278687
1718607464191118800,43.948118896484374,-0.16935443878173828,-0.14276939630508423,-0.8433915972709656
1718607464239993300,43.996993408203124,0.1213693618774414,-0.2569696307182312,-0.7662653923034668
1718607464288868000,44.0458681640625,0.4651365280151367,0.0035068094730377197,-0.5277571082115173
1718607464337742600,44.09474267578125,0.08501529693603516,0.47180038690567017,-0.7135871648788452
1718607464386617300,44.14361743164063,-0.06688976287841797,0.7900874018669128,-0.9253330230712891
1718607464435491800,44.19249194335937,-0.2121896743774414,0.35858529806137085,-0.9047065377235413
1718607464484366300,44.24136645507812,0.13321590423583984,-0.48104190826416016,-0.631695568561554
1718607464533241000,44.29024096679687,-0.2684593200683594,-0.3408970832824707,-0.5935229063034058
1718607464582115600,44.33911547851562,0.1776599884033203,-0.08796603977680206,-0.5767009258270264
1718607464630990300,44.387990234375,0.13682842254638672,0.7153635025024414,-0.6987161040306091
1718607464679864800,44.43686474609375,-0.26220130920410156,0.852408766746521,-0.6911029815673828
1718607464728739300,44.4857392578125,0.19056320190429688,0.137425035238266,-0.7118894457817078
1718607464777614000,44.53461401367188,-0.27873802185058594,-0.24770481884479523,-0.33884090185165405
1718607464826488600,44.58348852539063,0.38540172576904297,-0.5501810312271118,-0.2335311770439148
1718607464875363000,44.63236303710938,0.09149456024169922,-0.16393554210662842,-0.5458548069000244
1718607464924237800,44.68123779296875,0.21925926208496094,0.31351426243782043,-0.6131231784820557
1718607464973112300,44.7301123046875,0.09801673889160156,0.7990894317626953,-0.698997974395752
1718607465021986800,44.77898681640625,-0.001949310302734375,0.6046527624130249,-0.6356216073036194
1718607465070861600,44.827861572265626,0.24525928497314453,0.08967162668704987,-0.4991075098514557
1718607465119736000,44.876736083984376,0.0962381362915039,-0.22799181938171387,-0.2805246412754059
1718607465168610600,44.92561059570313,0.3819599151611328,-0.22090396285057068,-0.3688107430934906
1718607465217485300,44.9744853515625,0.37879085540771484,0.2040407508611679,-0.6359533071517944
1718607465266359800,45.02335986328125,0.3966636657714844,0.5794895887374878,-0.8318972587585449
1718607465315234600,45.07223461914062,0.24560546875,0.5528231859207153,-0.7132875919342041
1718607465364109000,45.121109130859374,0.31467342376708984,0.1381577104330063,-0.41450750827789307
1718607465412983600,45.169983642578124,0.32003021240234375,-0.03620028495788574,-0.12107521295547485
1718607465461858300,45.2188583984375,0.22388267517089844,-0.0791262686252594,-0.22135543823242188
1718607465510732800,45.26773291015625,0.08156681060791016,0.15652361512184143,-0.45071738958358765
1718607465559607300,45.316607177734376,-0.013437271118164062,0.27976280450820923,-0.4837532043457031
1718607465608482000,45.36548193359375,0.06573867797851562,0.29545339941978455,-0.5278304815292358
1718607465657356500,45.4143564453125,0.12459754943847656,0.22937071323394775,-0.48872679471969604
1718607465706231300,45.46323120117187,0.11565017700195312,0.23793689906597137,-0.41433876752853394
1718607465755105800,45.51210571289062,-0.2720956802368164,0.1091722846031189,-0.37096351385116577
1718607465803980300,45.560980224609374,0.028493881225585938,0.1108693927526474,-0.26689964532852173
1718607465852855000,45.60985498046875,-0.2492237091064453,0.2720034420490265,-0.1233375072479248
1718607465901729500,45.6587294921875,-0.08764076232910156,0.2664206624031067,-0.3372673988342285
1718607465950604000,45.70760400390625,-0.25001049041748047,0.35286128520965576,-0.5287752747535706
1718607465999478800,45.75647875976563,-0.07942771911621094,0.40560051798820496,-0.47296208143234253
1718607466048353300,45.80535327148438,-0.16948509216308594,0.3069586753845215,-0.36678367853164673
1718607466097228000,45.85422802734375,-0.1617593765258789,-0.020347565412521362,-0.3032218813896179
1718607466146102500,45.9031025390625,-0.09226226806640625,0.11053644120693207,-0.41209346055984497
1718607466194977000,45.95197705078125,0.0048828125,0.4778960943222046,-0.275707483291626
1718607466243851800,46.000851806640625,0.32512855529785156,0.5624494552612305,-0.3227689862251282
1718607466292726300,46.049726318359376,0.06701278686523438,0.5969505310058594,-0.29275405406951904
1718607466341600800,46.09860083007813,0.1298074722290039,0.21289010345935822,-0.2512776851654053
1718607466390475500,46.1474755859375,-0.21780014038085938,0.1280083954334259,0.03704756498336792
1718607466439350000,46.19635009765625,-0.13923168182373047,0.2873729467391968,0.19691285490989685
1718607466488224500,46.245224609375,-0.12800121307373047,0.6469146013259888,0.18427243828773499
1718607466537099300,46.29409936523437,0.4060630798339844,0.9406599998474121,0.008511960506439209
1718607466585973800,46.342973876953124,-0.5763359069824219,1.2539762258529663,-0.15109413862228394
1718607466634848500,46.3918486328125,-0.23308467864990234,0.5589370727539062,0.03722274303436279
1718607466683723000,46.440722900390625,-0.018158912658691406,0.42152130603790283,0.3425901532173157
1718607466732597500,46.489597412109376,-0.005340576171875,1.032381296157837,0.6731650233268738
1718607466781472300,46.53847216796875,-0.10616874694824219,1.226840615272522,0.44220781326293945
1718607466830346800,46.5873466796875,0.3340911865234375,0.9059506058692932,0.2464655637741089
1718607466879221200,46.63622119140625,0.28206729888916016,0.7553792595863342,0.47131186723709106
1718607466928096000,46.68509594726562,0.038672447204589844,1.1965160369873047,0.3711758852005005
1718607466976970500,46.73397045898437,0.2785768508911133,0.6023170351982117,0.4001011550426483
1718607467025845000,46.782844970703124,0.4131507873535156,0.9160617589950562,0.45214909315109253
1718607467074719700,46.8317197265625,-0.1073312759399414,0.8609548211097717,0.2916252017021179
1718607467123594200,46.88059423828125,0.16443920135498047,0.9862921237945557,-0.03663760423660278
1718607467172468700,46.92946875,0.06494522094726562,1.0207569599151611,0.08365797996520996
1718607467221343500,46.97834350585938,0.09543609619140625,1.0491447448730469,-0.00662386417388916
1718607467270218000,47.02721801757812,0.08622169494628906,0.7935224771499634,-0.051164865493774414
1718607467319092500,47.07609252929687,0.2300567626953125,0.833489716053009,0.037331223487854004
1718607467367967200,47.12496728515625,0.02588176727294922,0.8442184925079346,0.35855814814567566
1718607467416841700,47.173841796875,-0.16039562225341797,0.7390670776367188,0.225202739238739
1718607467465716200,47.22271630859375,-0.13282108306884766,0.8055168986320496,0.1227990984916687
1718607467514591000,47.271591064453126,0.03612327575683594,0.9085152745246887,0.23221945762634277
1718607467563465500,47.32046557617188,0.08055973052978516,0.970116913318634,0.1711762547492981
1718607467612340200,47.36934033203125,0.037123680114746094,1.1010099649429321,0.2028442621231079
1718607467661214700,47.41821459960938,0.06181812286376953,0.9768742918968201,0.33418625593185425
1718607467710089200,47.46708911132812,0.10889530181884766,0.8824968338012695,0.49781695008277893
1718607467758964000,47.5159638671875,0.13222503662109375,0.8383418917655945,0.5032767057418823
1718607467807838500,47.56483837890625,0.17877483367919922,1.0482957363128662,0.3955536484718323
1718607467856713000,47.613712890625,0.08321189880371094,1.1906205415725708,0.21774619817733765
1718607467905587700,47.662587646484376,0.07312393188476562,1.4880151748657227,0.1233101487159729
1718607467954462200,47.711462158203126,0.013894081115722656,1.3035560846328735,0.2687452435493469
1718607468003336700,47.76033666992188,0.20222759246826172,1.0460472106933594,0.3879696726799011
1718607468052211500,47.80921142578125,0.16135025024414062,1.012320637702942,0.5871618390083313
1718607468101086000,47.8580859375,-0.12295150756835938,1.0608254671096802,0.578656792640686
1718607468149960400,47.90696044921875,-0.08537006378173828,1.1700319051742554,0.5553567409515381
1718607468198835200,47.955835205078124,0.06958484649658203,1.2539734840393066,0.6303831934928894
1718607468247709700,48.004709716796874,0.20696353912353516,1.192220687866211,0.506244421005249
1718607468296584200,48.053584228515625,0.0055942535400390625,1.2294001579284668,0.34431982040405273
1718607468345459000,48.102458984375,-0.016251564025878906,1.042952060699463,0.39158183336257935
1718607468394333400,48.15133349609375,0.12911319732666016,1.092948079109192,0.46652188897132874
1718607468443208000,48.2002080078125,0.1186981201171875,1.008694052696228,0.574021577835083
1718607468492082700,48.24908276367187,0.018317222595214844,1.0214060544967651,0.43366411328315735
1718607468540957200,48.29795727539062,0.055362701416015625,1.1600760221481323,0.4446524381637573
1718607468589831700,48.34683178710937,0.0005788803100585938,1.2463270425796509,0.5170226097106934
1718607468638706200,48.3957060546875,0.11018085479736328,1.2512006759643555,0.5483125448226929
1718607468687581000,48.444580810546874,-0.06304645538330078,1.0394514799118042,0.408698707818985
1718607468736455400,48.493455322265625,0.18045520782470703,0.8944380879402161,0.32318782806396484
1718607468785330200,48.542330078125,0.1953277587890625,1.0149190425872803,0.461327463388443
1718607468834204700,48.59120458984375,0.1829366683959961,1.270426630973816,0.5055429935455322
1718607468883079200,48.6400791015625,-0.07634449005126953,1.3070029020309448,0.5043661594390869
1718607468931954000,48.68895385742187,0.052069664001464844,1.2021081447601318,0.5156764984130859
1718607468980828400,48.73782836914062,0.013150215148925781,1.094054102897644,0.5711928009986877
1718607469029703000,48.78670288085937,0.2277965545654297,1.1225624084472656,0.4577552378177643
1718607469078577700,48.83557763671875,0.1035146713256836,1.3565363883972168,0.3076646327972412
1718607469127452200,48.8844521484375,0.12102222442626953,1.2958602905273438,0.24497586488723755
1718607469176326700,48.93332666015625,0.11449241638183594,1.1651448011398315,0.2510443329811096
1718607469225201400,48.98220141601563,0.09882926940917969,1.0840355157852173,0.4266020357608795
1718607469274076000,49.03107592773438,0.00042247772216796875,1.100480318069458,0.4228823781013489
1718607469322950400,49.07995043945313,0.02146148681640625,1.2613037824630737,0.34652411937713623
1718607469371825000,49.12882495117187,-0.032382965087890625,1.378064751625061,0.2756460905075073
1718607469420699600,49.17769970703125,0.057891845703125,1.2473466396331787,0.2803528904914856
1718607469469574100,49.22657421875,0.0681467056274414,1.2707191705703735,0.31713682413101196
1718607469518448600,49.27544873046875,0.11705875396728516,1.1357160806655884,0.3340609669685364
1718607469567323400,49.324323486328126,0.27570056915283203,1.1435610055923462,0.36856645345687866
1718607469616198000,49.37319799804688,0.14653587341308594,1.1098077297210693,0.42485353350639343
1718607469665072400,49.422072265625,0.1688833236694336,1.0701913833618164,0.4658125340938568
1718607469713947100,49.47094702148438,-0.11024951934814453,1.1635842323303223,0.5626910924911499
1718607469762821600,49.51982153320313,-0.0730743408203125,1.1931369304656982,0.5707269906997681
1718607469811696000,49.56869604492187,-0.11679935455322266,1.084524154663086,0.4786038398742676
1718607469860571000,49.61757080078125,0.15796566009521484,1.0563009977340698,0.4057239294052124
1718607469909445400,49.6664453125,0.09438133239746094,1.2172447443008423,0.29646992683410645
1718607469958319900,49.71531982421875,0.12354755401611328,1.2946091890335083,0.3066316843032837
1718607470007194600,49.764194580078126,0.02728748321533203,1.2094725370407104,0.5216081142425537
1718607470056069000,49.813069091796876,0.27788543701171875,1.0063483715057373,0.5790454149246216
1718607470104943600,49.86194360351563,0.22684955596923828,0.9881982803344727,0.5089574456214905
1718607470153818000,49.91081811523438,0.10334968566894531,1.2361749410629272,0.34462571144104004
1718607470202692900,49.95969287109375,-0.11158561706542969,1.2241771221160889,0.3172755241394043
1718607470251567400,50.0085673828125,-0.14257431030273438,1.1679514646530151,0.31195318698883057
1718607470300441900,50.05744189453125,-0.06601810455322266,1.128558874130249,0.2484912872314453
1718607470349316600,50.106316650390625,0.07981681823730469,1.08162522315979,0.1522929072380066
1718607470398191000,50.155191162109375,0.15729808807373047,1.1664363145828247,0.2016722559928894
1718607470447065600,50.204065673828126,0.1641864776611328,1.2564884424209595,0.32789283990859985
1718607470495940400,50.2529404296875,0.11699867248535156,1.2085472345352173,0.4645557105541229
1718607470544814800,50.30181494140625,0.2749605178833008,1.0298852920532227,0.6086697578430176
1718607470593689300,50.350689453125,0.21458911895751953,0.9156166315078735,0.5646075010299683
1718607470642563800,50.39956372070313,0.1582622528076172,1.0189638137817383,0.40716901421546936
1718607470691438600,50.4484384765625,-0.11692333221435547,1.164176106452942,0.2627716064453125
1718607470740313000,50.49731298828125,-0.20566558837890625,1.2092539072036743,0.21752411127090454
1718607470789187600,50.5461875,-0.17121028900146484,1.243372917175293,0.2668153643608093
1718607470838062300,50.595062255859375,-0.029351234436035156,1.1239875555038452,0.26380646228790283
1718607470886936800,50.643936767578126,0.14864158630371094,0.9349056482315063,0.2452988624572754
1718607470935811300,50.692811279296876,0.27153587341308594,1.0110018253326416,0.26957905292510986
1718607470984686000,50.74168603515625,0.24111652374267578,1.2652102708816528,0.3610130548477173
1718607471033560600,50.790560546875,0.13019466400146484,1.2501039505004883,0.4277839660644531
1718607471082435000,50.83943505859375,0.10400104522705078,0.9796274304389954,0.46349653601646423
1718607471131309600,50.8883095703125,0.08063507080078125,0.8859925270080566,0.44199052453041077
1718607471180184300,50.937184326171874,0.15064620971679688,0.9440454244613647,0.40895596146583557
1718607471229058800,50.986058837890624,0.03279685974121094,1.2208547592163086,0.3662160634994507
1718607471277933300,51.034933349609375,-0.09883594512939453,1.2272762060165405,0.2780357003211975
1718607471326808000,51.08380810546875,-0.09211254119873047,1.00737726688385,0.2566279172897339
1718607471375682600,51.1326826171875,-0.13729286193847656,0.9835121631622314,0.2775843143463135
1718607471424557000,51.18155712890625,0.13190364837646484,1.0719572305679321,0.2904113531112671
1718607471473431800,51.23043188476562,0.17073726654052734,1.2205519676208496,0.36898747086524963
1718607471522306300,51.27930639648437,0.1680431365966797,1.0874621868133545,0.44153133034706116
1718607471571180800,51.32818090820312,0.25563907623291016,0.9085657596588135,0.4711701571941376
1718607471620055300,51.37705517578125,0.14045238494873047,1.059783697128296,0.3908151686191559
1718607471668930000,51.425929931640624,0.11123275756835938,1.1949001550674438,0.2643202543258667
1718607471717804500,51.474804443359375,0.03317737579345703,1.0653971433639526,0.32109928131103516
1718607471766679000,51.523678955078125,0.014235496520996094,0.8464150428771973,0.26081156730651855
1718607471815553800,51.5725537109375,0.02077007293701172,0.9117480516433716,0.25282084941864014
1718607471864428300,51.62142822265625,0.03717994689941406,1.0463625192642212,0.2641746401786804
1718607471913302800,51.670302734375,0.005383491516113281,1.1335691213607788,0.29767316579818726
1718607471962177300,51.71917724609375,0.02219104766845703,1.0384663343429565,0.3394240140914917
1718607472011052000,51.76805200195312,0.05519676208496094,0.8582782745361328,0.37205928564071655
1718607472059926500,51.81692651367187,-0.056769371032714844,0.9288049936294556,0.28530633449554443
1718607472108801000,51.865801025390624,0.05850982666015625,1.086490511894226,0.2596127390861511
1718607472157675800,51.91467578125,0.06850051879882812,1.140232801437378,0.2821558117866516
1718607472206550300,51.96355029296875,0.2254314422607422,0.922269880771637,0.24392300844192505
1718607472255424800,52.0124248046875,0.15407085418701172,0.897040605545044,0.22265088558197021
1718607472304299300,52.06129931640625,0.2654256820678711,0.9427928328514099,0.22763562202453613
1718607472353174000,52.11017407226562,0.11050128936767578,1.0067061185836792,0.21248078346252441
1718607472402048500,52.15904858398437,0.19628524780273438,1.1322510242462158,0.2819068431854248
1718607472450923000,52.20792309570312,-0.07918167114257812,1.286325216293335,0.3345290422439575
1718607472499797500,52.25679760742187,-0.07660770416259766,1.263310432434082,0.3672585189342499
1718607472548672300,52.30567236328125,-0.2631263732910156,1.207390308380127,0.39006680250167847
1718607472597546800,52.354546630859375,0.018309593200683594,1.0145952701568604,0.38011255860328674
1718607472646421200,52.403421142578125,0.11735153198242188,1.1080464124679565,0.3983653485774994
1718607472695296000,52.4522958984375,0.19255733489990234,1.0815736055374146,0.283982515335083
1718607472744170500,52.50117041015625,0.14473342895507812,1.0818955898284912,0.14257711172103882
1718607472793045000,52.550044921875,0.16463947296142578,1.1654572486877441,0.19304466247558594
1718607472841919500,52.59891943359375,0.16332721710205078,1.1474363803863525,0.2502191662788391
1718607472890794200,52.64779418945312,0.12347602844238281,1.141039490699768,0.17225497961044312
1718607472939668700,52.69666870117187,0.05031776428222656,1.0064246654510498,0.24644410610198975
1718607472988543200,52.745543212890624,0.013813972473144531,0.9222806096076965,0.3191750645637512
1718607473037417700,52.794417724609374,-0.02010631561279297,1.04499089717865,0.3841836750507355
1718607473086292500,52.84329248046875,-0.11352252960205078,0.9511560201644897,0.32428446412086487
1718607473135167000,52.8921669921875,0.06815719604492188,0.7789058685302734,0.2969018816947937
1718607473184041500,52.94104150390625,0.07208061218261719,0.8674100637435913,0.37452250719070435
1718607473232916000,52.989916015625,0.2581291198730469,0.9577855467796326,0.27983176708221436
1718607473281790700,53.03879077148437,-0.007348060607910156,0.9288158416748047,0.24953103065490723
1718607473330665200,53.08766528320312,0.26418590545654297,0.604783296585083,0.23372620344161987
1718607473379539700,53.13653979492187,0.04771137237548828,0.6330465078353882,0.2452453374862671
1718607473428414200,53.185414306640624,0.21322917938232422,0.8182156085968018,0.2081146240234375
1718607473477289000,53.2342890625,0.0062961578369140625,0.8985462188720703,0.19562047719955444
1718607473526163500,53.28316357421875,0.03695201873779297,0.7708284854888916,0.2730264663696289
1718607473575038000,53.332037841796875,0.030271530151367188,0.6329705715179443,0.3684723973274231
1718607473623912400,53.380912353515626,-0.08765316009521484,0.5789911150932312,0.3699512779712677
1718607473672787200,53.429787109375,0.01862049102783203,0.45122984051704407,0.26738542318344116
1718607473721661700,53.47866162109375,0.25694942474365234,0.5545527935028076,0.27111226320266724
1718607473770536200,53.5275361328125,-0.10590362548828125,1.083784818649292,0.25678032636642456
1718607473819411000,53.57641088867187,0.2875986099243164,0.902580738067627,0.12754380702972412
1718607473868285400,53.625285400390624,0.02453899383544922,0.689888596534729,0.27637603878974915
1718607473917160000,53.674159912109374,0.09746170043945312,0.6985933184623718,0.26839497685432434
1718607473966034400,53.723034423828125,0.0988616943359375,0.36710044741630554,0.23810702562332153
1718607474014909200,53.7719091796875,0.20184326171875,0.6702795028686523,0.33532029390335083
1718607474063783700,53.82078369140625,0.0571746826171875,1.005785346031189,0.3022488057613373
1718607474112658200,53.869658203125,0.07325935363769531,0.8990418910980225,0.27064403891563416
1718607474161532700,53.91853271484375,-0.009121894836425781,0.5987473130226135,0.3970770239830017
1718607474210407200,53.9674072265625,0.030849456787109375,0.41128847002983093,0.345355361700058
1718607474259282000,54.01628198242187,0.059470176696777344,0.3134755790233612,0.25674447417259216
1718607474308156400,54.06515649414062,0.008215904235839844,0.5774591565132141,0.2521277368068695
1718607474357031000,54.114031005859374,0.01668071746826172,0.548511266708374,0.1788535714149475
1718607474405905400,54.162905517578125,0.1665029525756836,0.36747148633003235,0.24635645747184753
1718607474454780200,54.2117802734375,0.11113929748535156,0.2739112973213196,0.35069432854652405
1718607474503654700,54.260654541015626,0.20598316192626953,0.1946163773536682,0.20372223854064941
1718607474552529200,54.309529052734376,0.026533126831054688,0.2573731541633606,0.2768045961856842
1718607474601403600,54.35840356445313,0.11540889739990234,0.3109589219093323,0.29749757051467896
1718607474650278400,54.4072783203125,0.010027885437011719,0.24702459573745728,0.22325938940048218
1718607474699153000,54.45615283203125,0.13074493408203125,0.21668335795402527,0.219332754611969
1718607474748027400,54.50502734375,0.045142173767089844,0.255293071269989,0.2258373498916626
1718607474796902000,54.55390185546875,0.05745887756347656,0.26094838976860046,0.2337295413017273
1718607474845776400,54.6027763671875,0.018062591552734375,0.24540334939956665,0.2956162691116333
1718607474894651100,54.651651123046875,0.058358192443847656,0.21076494455337524,0.261783629655838
1718607474943525600,54.700525634765626,0.07780647277832031,0.25050950050354004,0.2341982126235962
1718607474992400100,54.749400146484376,0.18719482421875,0.3604479432106018,0.2809915542602539
1718607475041274600,54.79827465820313,0.10635089874267578,0.44066542387008667,0.2726162075996399
1718607475090149400,54.8471494140625,0.09205913543701172,0.46025151014328003,0.33365193009376526
1718607475139024000,54.89602392578125,0.09451866149902344,0.3584430515766144,0.31288793683052063
1718607475187898400,54.9448984375,0.0562591552734375,0.4662696123123169,0.2369251549243927
1718607475236772900,54.99377294921875,0.11050891876220703,0.5257482528686523,0.21980208158493042
1718607475285647600,55.042647705078124,0.051749229431152344,0.6478890180587769,0.14826685190200806
1718607475334522000,55.091522216796875,0.03856182098388672,0.690382719039917,0.17227500677108765
1718607475383396600,55.140396728515626,0.062389373779296875,0.6201907992362976,0.25722256302833557
1718607475432271000,55.18927099609375,0.05943107604980469,0.6122457385063171,0.2523892819881439
1718607475481145600,55.2381455078125,0.08515262603759766,0.5925236940383911,0.2750472128391266
1718607475530020400,55.28702026367188,0.07213020324707031,0.564317524433136,0.2571377158164978
1718607475578894800,55.33589477539063,0.12328243255615234,0.6235224008560181,0.24431779980659485
1718607475627769300,55.38476928710938,0.06888294219970703,0.6960249543190002,0.2079564929008484
1718607475676643800,55.43364379882812,0.13709735870361328,0.6700838804244995,0.18783628940582275
1718607475725518600,55.4825185546875,0.1138458251953125,0.6672724485397339,0.22674766182899475
1718607475774393000,55.53139306640625,-0.054282188415527344,0.44678235054016113,0.244681715965271
1718607475823267600,55.580267578125,-0.12749195098876953,-0.40118253231048584,0.23348459601402283
1718607475872142000,55.62914208984375,0.04845619201660156,-1.259647250175476,0.3534379005432129
1718607475921016600,55.6780166015625,0.05897712707519531,-1.7431488037109375,0.42313385009765625
1718607475969891000,55.72689111328125,0.47792816162109375,-1.4838972091674805,0.2763548493385315
1718607476018765800,55.77576586914063,0.22242450714111328,-0.6776436567306519,0.1755753755569458
1718607476067640300,55.82464038085938,0.18850040435791016,0.3585200905799866,0.19667205214500427
1718607476116514800,55.87351489257812,0.012362480163574219,0.7912202477455139,0.191503643989563
1718607476165389300,55.92238940429687,-0.09488582611083984,0.17149055004119873,0.21289178729057312
1718607476214264000,55.97126416015625,-0.03698253631591797,-0.6417732238769531,0.3263692259788513
1718607476263138600,56.020138671875,0.04997730255126953,-1.0151684284210205,0.35407301783561707
1718607476312013000,56.069012939453124,0.0966806411743164,-0.8087884783744812,0.329830139875412
1718607476360887600,56.117887451171875,0.1553812026977539,-0.5043337941169739,0.2761249244213104
1718607476409762000,56.166761962890625,0.13697052001953125,-0.23928400874137878,0.2607349455356598
1718607476458636800,56.21563671875,0.18094253540039062,-0.1197071373462677,0.36330124735832214
1718607476507511300,56.26451123046875,0.05437946319580078,-0.24906882643699646,0.10425776243209839
1718607476556385800,56.3133857421875,0.020379066467285156,-0.3677278161048889,0.12183451652526855
1718607476605260300,56.36226025390625,-0.02622699737548828,-0.40856343507766724,0.29650238156318665
1718607476654134800,56.411134765625,0.041851043701171875,-0.48435157537460327,0.27193599939346313
1718607476703009500,56.46000952148437,0.11591529846191406,-0.4365117847919464,0.2861342132091522
1718607476751884000,56.508884033203124,0.16413116455078125,-0.38278162479400635,0.20696723461151123
1718607476800758500,56.557758544921874,0.12833595275878906,-0.385027676820755,0.12982475757598877
1718607476849633000,56.606633056640625,0.10760211944580078,-0.3543470501899719,0.20760029554367065
1718607476898507500,56.655507568359376,0.03901195526123047,-0.37865081429481506,0.2757103145122528
1718607476947382300,56.70438232421875,-0.005207061767578125,-0.38150909543037415,0.3214540183544159
1718607476996256800,56.7532568359375,0.01909637451171875,-0.38029536604881287,0.33037781715393066
1718607477045131300,56.80213134765625,0.07935047149658203,-0.32064589858055115,0.26794204115867615
1718607477094005800,56.851005859375,0.10278701782226562,-0.31214088201522827,0.18631115555763245
1718607477142880300,56.89988037109375,0.14058303833007812,-0.3735240697860718,0.1608235239982605
1718607477191755000,56.948755126953124,0.1156320571899414,-0.4120279550552368,0.20757058262825012
1718607477240629500,56.99762939453125,0.1229095458984375,-0.4313080906867981,0.27817511558532715
1718607477289504000,57.04650390625,0.058353424072265625,-0.34391942620277405,0.32116422057151794
1718607477338378500,57.09537841796875,0.07888412475585938,-0.35451528429985046,0.2992391586303711
1718607477387253000,57.1442529296875,0.03919219970703125,-0.33714139461517334,0.338993638753891
1718607477436127500,57.19312744140625,0.062005043029785156,-0.28468894958496094,0.29116055369377136
1718607477485002200,57.24200219726563,0.053256988525390625,-0.38036108016967773,0.18797358870506287
1718607477533876700,57.29087670898438,0.10858917236328125,-0.4188658595085144,0.10285359621047974
1718607477582751200,57.33975122070313,0.06249809265136719,-0.37887728214263916,0.14137005805969238
1718607477631625700,57.38862573242187,0.11303520202636719,-0.33549964427948,0.2098425328731537
1718607477680500200,57.43750024414062,0.0875558853149414,-0.3186090886592865,0.27157852053642273
1718607477729374700,57.48637475585937,0.1040191650390625,-0.3390832543373108,0.3038718104362488
1718607477778249500,57.53524951171875,0.06951713562011719,-0.3737366497516632,0.27959826588630676
1718607477827124000,57.5841240234375,0.061186790466308594,-0.33557799458503723,0.20830371975898743
1718607477875998500,57.63299853515625,0.10429096221923828,-0.3416665196418762,0.1373882293701172
1718607477924873000,57.681873046875,0.057991981506347656,-0.3102107346057892,0.17659449577331543
1718607477973747500,57.73074755859375,0.08016777038574219,-0.3458915948867798,0.20068806409835815
1718607478022622200,57.77962231445313,0.0779867172241211,-0.3966946005821228,0.19171357154846191
1718607478071496700,57.82849658203125,0.08004379272460938,-0.32185012102127075,0.28152918815612793
1718607478120371200,57.87737109375,0.07572364807128906,-0.3249814212322235,0.2789039611816406
1718607478169245700,57.92624560546875,0.06446361541748047,-0.3418039083480835,0.23896145820617676
1718607478218120200,57.9751201171875,0.0977640151977539,-0.32692351937294006,0.2299787700176239
1718607478266994700,58.02399462890625,0.06959819793701172,-0.31539610028266907,0.16378343105316162
1718607478315869400,58.072869384765625,0.0836954116821289,-0.3373434841632843,0.1384539008140564
1718607478364744000,58.121743896484375,0.08866119384765625,-0.3334675431251526,0.1482362151145935
1718607478413618400,58.170618408203126,0.09801101684570312,-0.29525431990623474,0.21124181151390076
1718607478462493000,58.219492919921876,0.061774253845214844,-0.32116490602493286,0.2951846420764923
1718607478511367400,58.26836743164063,0.07134723663330078,-0.3824925422668457,0.3254317343235016
1718607478560242000,58.31724194335938,0.07018852233886719,-0.3335852026939392,0.2650599181652069
1718607478609116700,58.36611669921875,0.07821464538574219,-0.2863571345806122,0.17828136682510376
1718607478657991200,58.4149912109375,0.04890918731689453,-0.32528427243232727,0.09394001960754395
1718607478706865700,58.46386572265625,0.10914421081542969,-0.31684359908103943,0.11776769161224365
1718607478755740200,58.512740234375,0.07567405700683594,-0.30976176261901855,0.21545737981796265
1718607478804614700,58.56161474609375,0.1117258071899414,-0.31590360403060913,0.23016563057899475
1718607478853489200,58.6104892578125,0.09209060668945312,-0.34580564498901367,0.2818274199962616
1718607478902363600,58.65936376953125,0.09249210357666016,-0.3202302157878876,0.334865003824234
1718607478951238400,58.70823828125,0.046810150146484375,-0.30284249782562256,0.28203085064888
1718607479000113000,58.75711279296875,0.05607891082763672,-0.3159867823123932,0.13183361291885376
1718607479048987400,58.8059873046875,0.04610919952392578,-0.29954293370246887,0.14753401279449463
1718607479097862000,58.85486181640625,0.0556182861328125,-0.2819250524044037,0.15205270051956177
1718607479146736400,58.903736328125,0.08586883544921875,-0.3310801684856415,0.14088094234466553
1718607479195611000,58.95261083984375,0.08073902130126953,-0.3003632724285126,0.2273012399673462
1718607479244485400,59.0014853515625,0.09382152557373047,-0.31993046402931213,0.2748902440071106
1718607479293360000,59.050360107421874,0.07601261138916016,-0.2909904420375824,0.2639602720737457
1718607479342234600,59.099234619140624,0.13433074951171875,-0.28597161173820496,0.19183075428009033
1718607479391109000,59.148109130859375,0.06682205200195312,-0.2893001437187195,0.11125689744949341
1718607479439983600,59.196983642578125,0.02678680419921875,-0.3220229148864746,0.1445767879486084
1718607479488858000,59.245858154296876,0.09787750244140625,-0.3376704752445221,0.12344992160797119
1718607479537732600,59.294732666015626,0.03915596008300781,-0.284965842962265,0.056848108768463135
1718607479586607000,59.34360717773438,0.038135528564453125,-0.2566681206226349,0.2181839942932129
1718607479635481600,59.39248168945313,0.1016073226928711,-0.289316862821579,0.29339274764060974
1718607479684356400,59.4413564453125,0.08930492401123047,-0.34520694613456726,0.2612338066101074
1718607479733230800,59.49023095703125,0.10164642333984375,-0.2882526218891144,0.27334144711494446
1718607479782105300,59.53910522460937,0.09699344635009766,-0.2637227177619934,0.18891799449920654
1718607479830979800,59.58797973632812,0.07944774627685547,-0.2975139617919922,0.12620174884796143
1718607479879854300,59.63685424804687,0.07268047332763672,-0.2716154456138611,0.15990477800369263
1718607479928728800,59.685728759765624,0.07889461517333984,-0.2822844982147217,0.2170034646987915
1718607479977603300,59.734603271484374,0.057328224182128906,-0.2639789283275604,0.22511506080627441
1718607480026478000,59.78347802734375,0.09818363189697266,-0.27387532591819763,0.24051398038864136
1718607480075352600,59.8323525390625,0.08394145965576172,-0.32293370366096497,0.20559364557266235
1718607480124227000,59.88122705078125,0.07571220397949219,-0.3198893666267395,0.14797616004943848
1718607480173101600,59.9301015625,0.0155181884765625,-0.2915758490562439,0.13395720720291138
1718607480221976000,59.97897607421875,0.04823780059814453,-0.26089319586753845,0.14422965049743652
1718607480270850600,60.0278505859375,0.081146240234375,-0.23312605917453766,0.13452225923538208
1718607480319725000,60.07672509765625,0.10117149353027344,-0.2809533178806305,0.2406785488128662
1718607480368599800,60.125599853515624,0.11078166961669922,-0.3146769404411316,0.2215670347213745
1718607480417474000,60.17447412109375,0.10025596618652344,-0.2624216079711914,0.12457704544067383
1718607480466348800,60.223348876953125,0.06272697448730469,-0.18464761972427368,0.13047391176223755
1718607480515223300,60.272223388671875,0.07281684875488281,-0.2809688448905945,0.09276044368743896
1718607480564097800,60.321097900390626,0.04327869415283203,-0.3601410984992981,0.1378360390663147
1718607480612972300,60.36997216796875,0.07026100158691406,-0.2956774830818176,0.1925278902053833
1718607480661846800,60.4188466796875,0.039763450622558594,-0.23788581788539886,0.2065860629081726
1718607480710721300,60.46772119140625,0.0503692626953125,-0.22523583471775055,0.21223723888397217
1718607480759595800,60.516595703125,0.052387237548828125,-0.2654021680355072,0.19436633586883545
1718607480808470300,60.56547021484375,0.0927896499633789,-0.2997818887233734,0.21824097633361816
1718607480857345000,60.61434497070312,0.1075592041015625,-0.2761339843273163,0.17880398035049438
1718607480906219500,60.66321948242187,0.1279773712158203,-0.24847392737865448,0.11099356412887573
1718607480955094000,60.71209399414062,0.11840534210205078,-0.2549021244049072,0.08574998378753662
1718607481003968500,60.760968505859374,0.10239982604980469,-0.26322126388549805,0.1389032006263733
1718607481052843000,60.809843017578125,0.08412456512451172,-0.24341528117656708,0.2408376932144165
1718607481101717500,60.858717529296875,0.06688976287841797,-0.268277108669281,0.2394580841064453
1718607481150592000,60.907592041015626,0.04662799835205078,-0.24894064664840698,0.1951456069946289
1718607481199466500,60.956466552734376,0.04320812225341797,-0.25026601552963257,0.186833918094635
1718607481248341000,61.00534106445313,0.06305789947509766,-0.2547716796398163,0.1551973819732666
1718607481297215700,61.0542158203125,0.07199668884277344,-0.2669347822666168,0.12856262922286987
1718607481346090200,61.10309033203125,0.037131309509277344,-0.25950887799263,0.14464688301086426
1718607481394964700,61.15196484375,0.066192626953125,-0.2420845478773117,0.16787385940551758
1718607481443839200,61.20083911132812,0.07666969299316406,-0.24615314602851868,0.15374326705932617
1718607481492713700,61.24971362304687,0.10129833221435547,-0.2431403398513794,0.14280515909194946
1718607481541588200,61.29858813476562,0.10044384002685547,-0.23290692269802094,0.1365848183631897
1718607481590462700,61.347462646484374,0.12299537658691406,-0.26068612933158875,0.13993197679519653
1718607481639337200,61.396337158203124,0.09607696533203125,-0.2521142065525055,0.1578378677368164
1718607481688211700,61.445211669921875,0.10274219512939453,-0.2245095819234848,0.17710041999816895
1718607481737086200,61.494086181640625,0.05932807922363281,-0.23710651695728302,0.1370972990989685
1718607481785961000,61.5429609375,0.035208702087402344,-0.26473572850227356,0.1925877332687378
1718607481834835500,61.59183544921875,0.035968780517578125,-0.23010849952697754,0.21289759874343872
1718607481883710000,61.6407099609375,0.05973052978515625,-0.2520512640476227,0.16065222024917603
1718607481932584400,61.68958447265625,0.056606292724609375,-0.2228526622056961,0.1125485897064209
1718607481981459000,61.738458984375,0.08813095092773438,-0.25409936904907227,0.10810911655426025
1718607482030333400,61.78733349609375,0.10521984100341797,-0.23571881651878357,0.14070332050323486
1718607482079208000,61.8362080078125,0.08380603790283203,-0.23733429610729218,0.1725335717201233
1718607482128082400,61.88508251953125,0.09390544891357422,-0.2262166440486908,0.1736469864845276
1718607482176957000,61.93395703125,0.09494209289550781,-0.22950780391693115,0.1718311309814453
1718607482225831400,61.98283154296875,0.08502578735351562,-0.23798969388008118,0.13490253686904907
1718607482274706000,62.031705810546875,0.055296897888183594,-0.23615305125713348,0.1371910572052002
1718607482323580400,62.080580322265625,0.06258773803710938,-0.22012455761432648,0.12850815057754517
1718607482372455200,62.129455078125,0.05397987365722656,-0.22792862355709076,0.1387537121772766
1718607482421329700,62.17832958984375,0.05288219451904297,-0.2212080955505371,0.1506022810935974
1718607482470204200,62.2272041015625,0.08355522155761719,-0.24655944108963013,0.16038250923156738
1718607482519078700,62.27607861328125,0.05935192108154297,-0.22950473427772522,0.1776534914970398
1718607482567953200,62.324953125,0.10660266876220703,-0.21636806428432465,0.20867449045181274
1718607482616827600,62.37382763671875,0.10103893280029297,-0.23999372124671936,0.14854133129119873
1718607482665702100,62.4227021484375,0.10399150848388672,-0.23809824883937836,0.11065882444381714
1718607482714576600,62.47157666015625,0.07987594604492188,-0.2237587720155716,0.10416537523269653
1718607482763451100,62.520451171875,0.06995868682861328,-0.2043064385652542,0.08535420894622803
1718607482812325600,62.56932568359375,0.039165496826171875,-0.21696415543556213,0.12582051753997803
1718607482861200100,62.6182001953125,0.01939105987548828,-0.23237954080104828,0.15141969919204712
1718607482910074600,62.66707470703125,0.05666637420654297,-0.22755545377731323,0.17507368326187134
1718607482958949000,62.71594921875,0.06292247772216797,-0.21432888507843018,0.189444899559021
1718607483007824000,62.76482397460938,0.0930023193359375,-0.220772847533226,0.17674154043197632
1718607483056698000,62.81369799804688,0.10177230834960938,-0.21526175737380981,0.12266969680786133
1718607483105572900,62.86257275390625,0.09473514556884766,-0.22498521208763123,0.07048267126083374
1718607483154447400,62.911447265625,0.07348346710205078,-0.20399221777915955,0.08028638362884521
1718607483203321900,62.96032177734375,0.07999324798583984,-0.19807429611682892,0.1084248423576355
1718607483252196400,63.0091962890625,0.0748910903930664,-0.2087612748146057,0.14307242631912231
1718607483301070800,63.05807080078125,0.11463642120361328,-0.22462762892246246,0.11993575096130371
1718607483349945300,63.1069453125,0.05579853057861328,-0.20768260955810547,0.1343100666999817
1718607483398819800,63.15581982421875,0.061362266540527344,-0.2020401507616043,0.20750540494918823
1718607483447694300,63.2046943359375,0.04613208770751953,-0.2074359655380249,0.1778651475906372
1718607483496568800,63.25356884765625,0.061615943908691406,-0.20566704869270325,0.16450482606887817
1718607483545443300,63.302443359375,0.0549774169921875,-0.2225555181503296,0.12140560150146484
1718607483594317800,63.35131787109375,0.07761478424072266,-0.21784339845180511,0.106239914894104
1718607483643192300,63.4001923828125,0.08177375793457031,-0.1984550654888153,0.10615187883377075
1718607483692066800,63.44906689453125,0.10106277465820312,-0.19819556176662445,0.11831670999526978
1718607483740941300,63.49794140625,0.06860065460205078,-0.1931351125240326,0.1254909634590149
1718607483789815800,63.54681591796875,0.08523178100585938,-0.2228226661682129,0.13230067491531372
1718607483838690300,63.59569018554687,0.056575775146484375,-0.1994764357805252,0.13780856132507324
1718607483887565000,63.64456494140625,0.08028030395507812,-0.19771642982959747,0.09641611576080322
1718607483936439600,63.693439453125,0.05206871032714844,-0.20988509058952332,0.10679703950881958
1718607483985314000,63.74231396484375,0.08139514923095703,-0.19279402494430542,0.15519917011260986
1718607484034188500,63.7911884765625,0.05758380889892578,-0.21550887823104858,0.1373259425163269
1718607484083063000,63.84006298828125,0.07883071899414062,-0.21066713333129883,0.13823330402374268
1718607484131937500,63.8889375,0.08118152618408203,-0.17945308983325958,0.1491851806640625
1718607484180812000,63.93781201171875,0.08095359802246094,-0.16488365828990936,0.12240689992904663
1718607484229686500,63.9866865234375,0.06795501708984375,-0.19165582954883575,0.14324605464935303
1718607484278561000,64.03556103515625,0.07247447967529297,-0.2222106158733368,0.11880290508270264
1718607484327435500,64.084435546875,0.09110355377197266,-0.21242129802703857,0.10496526956558228
1718607484376310000,64.13331005859375,0.08893489837646484,-0.17858219146728516,0.12040823698043823
1718607484425184500,64.1821845703125,0.0599212646484375,-0.17173248529434204,0.093333899974823
1718607484474059000,64.23105908203125,0.05452919006347656,-0.18163906037807465,0.09375983476638794
1718607484522933500,64.27993359375,0.06601333618164062,-0.20134413242340088,0.1419224739074707
1718607484571808000,64.32880810546875,0.07709026336669922,-0.2075464278459549,0.16302067041397095
1718607484620682500,64.3776826171875,0.08844470977783203,-0.2030440866947174,0.1270464062690735
1718607484669557000,64.42655688476563,0.08269786834716797,-0.17452186346054077,0.10015177726745605
1718607484718431500,64.47543139648438,0.05171012878417969,-0.16454027593135834,0.11957800388336182
1718607484767306000,64.52430590820312,0.06600570678710938,-0.1826070249080658,0.1401134729385376
1718607484816180500,64.57318041992187,0.07254314422607422,-0.1901743859052658,0.11499971151351929
1718607484865055000,64.62205493164062,0.07338428497314453,-0.20312049984931946,0.11160629987716675
1718607484913929500,64.67092944335937,0.07468891143798828,-0.18609681725502014,0.15406566858291626
1718607484962804000,64.71980395507812,0.08670425415039062,-0.18237696588039398,0.1547245979309082
1718607485011678700,64.7686787109375,0.09078311920166016,-0.1860424131155014,0.09573966264724731
1718607485060553000,64.81755297851562,0.07432746887207031,-0.17641499638557434,0.11579155921936035
1718607485109427700,64.866427734375,0.06927204132080078,-0.1650168001651764,0.11631768941879272
1718607485158302200,64.91530224609374,0.05266857147216797,-0.17725740373134613,0.07493066787719727
1718607485207176700,64.9641767578125,0.0463104248046875,-0.18097248673439026,0.07590728998184204
1718607485256051200,65.01305126953125,0.0737161636352539,-0.18617239594459534,0.09273535013198853
1718607485304925700,65.06192578125,0.0729665756225586,-0.16179536283016205,0.08959746360778809
1718607485353800200,65.11080029296875,0.08033466339111328,-0.1619979441165924,0.08512121438980103
1718607485402674700,65.1596748046875,0.06680011749267578,-0.18310041725635529,0.11458450555801392
1718607485451549200,65.20854907226563,0.0835886001586914,-0.18781678378582,0.11103200912475586
1718607485500423700,65.25742358398438,0.08013629913330078,-0.17966654896736145,0.1264951229095459
1718607485549298200,65.30629809570313,0.0850515365600586,-0.15919409692287445,0.13025915622711182
1718607485598172700,65.35517260742188,0.07766342163085938,-0.15064042806625366,0.12287682294845581
1718607485647047200,65.40404711914063,0.08162975311279297,-0.16507019102573395,0.11555516719818115
1718607485695921700,65.45292163085938,0.059192657470703125,-0.16582195460796356,0.12333565950393677
1718607485744796200,65.50179614257813,0.0715169906616211,-0.18259668350219727,0.14174383878707886
1718607485793670700,65.55067065429688,0.08530902862548828,-0.19061987102031708,0.09768599271774292
1718607485842545200,65.59954516601563,0.06292343139648438,-0.16056540608406067,0.07023441791534424
1718607485891419600,65.64841967773438,0.0794687271118164,-0.15104269981384277,0.14724761247634888
1718607485940294100,65.69729418945313,0.07239246368408203,-0.1684456765651703,0.14195317029953003
1718607485989168600,65.74616870117187,0.07820606231689453,-0.18538527190685272,0.09112513065338135
1718607486038043100,65.79504321289062,0.05916118621826172,-0.1640370935201645,0.10134732723236084
1718607486086917600,65.84391772460937,0.08277702331542969,-0.16326287388801575,0.08976709842681885
1718607486135792000,65.89279223632812,0.0612335205078125,-0.15951356291770935,0.08411896228790283
1718607486184666600,65.94166650390625,0.058437347412109375,-0.15113651752471924,0.07881510257720947
1718607486233541000,65.990541015625,0.07182788848876953,-0.16656145453453064,0.10839831829071045
1718607486282415600,66.03941552734375,0.07371330261230469,-0.16414298117160797,0.12287569046020508
1718607486331290000,66.0882900390625,0.08864688873291016,-0.1704925149679184,0.08751094341278076
1718607486380164600,66.13716455078125,0.0632791519165039,-0.15445484220981598,0.06726658344268799
1718607486429039000,66.1860390625,0.06457710266113281,-0.15028183162212372,0.08700031042098999
1718607486477913600,66.23491357421875,0.0606231689453125,-0.16169488430023193,0.10206341743469238
1718607486526788000,66.2837880859375,0.05447864532470703,-0.1735977828502655,0.11291611194610596
1718607486575662600,66.33266259765625,0.10601234436035156,-0.1521388441324234,0.09962618350982666
1718607486624537000,66.381537109375,0.07185649871826172,-0.1354093849658966,0.08010172843933105
1718607486673411600,66.43041162109375,0.07731151580810547,-0.15559442341327667,0.11206555366516113
1718607486722286000,66.4792861328125,0.06795215606689453,-0.15944379568099976,0.12221181392669678
1718607486771160600,66.52816064453125,0.07592582702636719,-0.1723940074443817,0.0926399827003479
1718607486820035000,66.57703515625,0.062050819396972656,-0.14984218776226044,0.07857608795166016
1718607486868909600,66.62590966796876,0.0692596435546875,-0.1372281014919281,0.07757699489593506
1718607486917784000,66.6747841796875,0.05754566192626953,-0.15344253182411194,0.07951486110687256
1718607486966658600,66.72365844726562,0.038100242614746094,-0.1590002477169037,0.12293761968612671
1718607487015533000,66.77253295898437,0.07967376708984375,-0.15977109968662262,0.1261562705039978
1718607487064407600,66.82140747070312,0.06322097778320312,-0.14260199666023254,0.12973648309707642
1718607487113282000,66.87028198242187,0.07526111602783203,-0.15712255239486694,0.1270672082901001
1718607487162156500,66.91915649414062,0.08455848693847656,-0.15021145343780518,0.07915961742401123
1718607487211031000,66.96803100585937,0.0764932632446289,-0.15012609958648682,0.04745525121688843
1718607487259905500,67.01690551757812,0.08868026733398438,-0.13620659708976746,0.05380207300186157
1718607487308780000,67.06578002929687,0.08423614501953125,-0.13965612649917603,0.05206221342086792
1718607487357654500,67.11465454101562,0.09764289855957031,-0.15528009831905365,0.04718202352523804
1718607487406529000,67.16352905273438,0.07369136810302734,-0.13882485032081604,0.12242424488067627
1718607487455403500,67.21240356445313,0.06254863739013672,-0.14689579606056213,0.14480489492416382
1718607487504278000,67.26127807617188,0.04585075378417969,-0.1576242744922638,0.12488299608230591
1718607487553152500,67.31015258789063,0.05181598663330078,-0.1468115597963333,0.09819811582565308
1718607487602027000,67.35902709960938,0.048424720764160156,-0.1264847069978714,0.07806497812271118
1718607487650901500,67.40790161132813,0.09039115905761719,-0.13978205621242523,0.05443316698074341
1718607487699776000,67.45677587890626,0.07508659362792969,-0.139728844165802,0.07573425769805908
1718607487748650500,67.505650390625,0.1044607162475586,-0.15395699441432953,0.10987335443496704
1718607487797525000,67.55452490234374,0.08809661865234375,-0.15310810506343842,0.12044739723205566
1718607487846399500,67.6033994140625,0.09038352966308594,-0.1378861665725708,0.12211829423904419
1718607487895274000,67.65227392578124,0.06746864318847656,-0.13524708151817322,0.12411034107208252
1718607487944148500,67.7011484375,0.06900691986083984,-0.14080321788787842,0.1009475588798523
1718607487993023000,67.75002294921875,0.04240894317626953,-0.14791645109653473,0.07812684774398804
1718607488041897500,67.7988974609375,0.05525779724121094,-0.12794233858585358,0.06372272968292236
1718607488090772000,67.84777197265625,0.06240367889404297,-0.14285412430763245,0.034950077533721924
1718607488139646500,67.896646484375,0.07732295989990234,-0.13629934191703796,0.05118966102600098
1718607488188521000,67.94552099609375,0.07153511047363281,-0.1386350691318512,0.08129829168319702
1718607488237395500,67.9943955078125,0.092681884765625,-0.13769260048866272,0.07103747129440308
1718607488286270000,68.04327001953125,0.06362056732177734,-0.13583575189113617,0.09142589569091797
1718607488335144400,68.09214453125,0.05614662170410156,-0.1324560046195984,0.13208067417144775
1718607488384019000,68.14101904296875,0.07919883728027344,-0.13824531435966492,0.09988874197006226
1718607488432893400,68.1898935546875,0.06555366516113281,-0.13803325593471527,0.06703299283981323
1718607488481768000,68.23876782226563,0.06759929656982422,-0.13256101310253143,0.09667903184890747
1718607488530642400,68.28764233398438,0.06412315368652344,-0.14296568930149078,0.08060991764068604
1718607488579517000,68.33651684570313,0.06597614288330078,-0.1350163072347641,0.0626799464225769
1718607488628391400,68.38539135742188,0.0918283462524414,-0.1359022706747055,0.07220005989074707
1718607488677266000,68.43426586914063,0.07118511199951172,-0.12084624171257019,0.10186749696731567
1718607488726140400,68.48314038085938,0.06586551666259766,-0.13453179597854614,0.07952249050140381
1718607488775015000,68.53201489257812,0.04283332824707031,-0.14185136556625366,0.07428479194641113
1718607488823889400,68.58088940429687,0.07990646362304688,-0.14486245810985565,0.08952659368515015
1718607488872764000,68.62976391601562,0.07274818420410156,-0.12516799569129944,0.06784909963607788
1718607488921638400,68.67863842773437,0.050963401794433594,-0.09996403008699417,0.09329044818878174
1718607488970513000,68.72751293945312,0.0828399658203125,-0.10354920476675034,0.10728532075881958
1718607489019387400,68.77638745117187,0.06586360931396484,-0.16154927015304565,0.06709647178649902
1718607489068262000,68.82526196289062,0.06177711486816406,-0.1598774492740631,0.06792235374450684
1718607489117136400,68.87413647460937,0.09412860870361328,-0.11903510987758636,0.060936927795410156
1718607489166011000,68.92301098632812,0.06124114990234375,-0.09359171986579895,0.06844091415405273
1718607489214885400,68.97188549804687,0.07485294342041016,-0.1329028308391571,0.11029410362243652
1718607489263760000,69.020759765625,0.06997871398925781,-0.14560097455978394,0.12482422590255737
1718607489312634400,69.06963427734375,0.08158206939697266,-0.14429397881031036,0.12920933961868286
1718607489361508900,69.1185087890625,0.062277793884277344,-0.14180225133895874,0.06904709339141846
1718607489410383400,69.16738330078125,0.05343914031982422,-0.11569005250930786,0.02590113878250122
1718607489459257900,69.2162578125,0.05669403076171875,-0.10052117705345154,0.06959265470504761
1718607489508132400,69.26513232421875,0.06355667114257812,-0.13138875365257263,0.07861548662185669
1718607489557006800,69.3140068359375,0.07250785827636719,-0.14935500919818878,0.033884525299072266
1718607489605881300,69.36288134765626,0.08835792541503906,-0.12137739360332489,0.05234551429748535
1718607489654755800,69.411755859375,0.0629720687866211,-0.10256119072437286,0.09866327047348022
1718607489703630300,69.46063037109376,0.07511138916015625,-0.13099849224090576,0.09162348508834839
1718607489752504800,69.5095048828125,0.05108642578125,-0.13230456411838531,0.04750281572341919
1718607489801379300,69.55837939453124,0.05921363830566406,-0.12042379379272461,0.08888816833496094
1718607489850253800,69.60725390625,0.06997013092041016,-0.11398196220397949,0.06603550910949707
1718607489899128300,69.65612841796874,0.05650615692138672,-0.11155486106872559,0.026194512844085693
1718607489948002800,69.7050029296875,0.06811332702636719,-0.1116052120923996,0.06606197357177734
1718607489996877300,69.75387719726562,0.0669097900390625,-0.1310454159975052,0.10357576608657837
1718607490045751800,69.80275170898437,0.08202838897705078,-0.11417514830827713,0.07968711853027344
1718607490094626300,69.85162622070312,0.06987190246582031,-0.10982587933540344,0.10011690855026245
1718607490143500800,69.90050073242188,0.06644058227539062,-0.12238006293773651,0.06624984741210938
1718607490192375300,69.94937524414063,0.0667123794555664,-0.11467752605676651,0.07738959789276123
1718607490241249800,69.99824975585938,0.08569717407226562,-0.12318618595600128,0.07882273197174072
1718607490290124300,70.04712426757813,0.062317848205566406,-0.11983032524585724,0.07361447811126709
1718607490338998800,70.09599877929688,0.0855112075805664,-0.10351504385471344,0.07412105798721313
1718607490387873300,70.14487329101563,0.08691978454589844,-0.1207464337348938,0.08149802684783936
1718607490436747800,70.19374780273438,0.059665679931640625,-0.12476861476898193,0.0817064642906189
1718607490485622300,70.24262231445313,0.057891845703125,-0.12118019908666611,0.0715131163597107
1718607490534496800,70.29149682617188,0.050711631774902344,-0.09781743586063385,0.08379101753234863
1718607490583371300,70.34037133789063,0.058834075927734375,-0.11621423065662384,0.051264405250549316
1718607490632245800,70.38924584960938,0.054798126220703125,-0.11971639096736908,0.021339833736419678
1718607490681120300,70.43812036132813,0.06910514831542969,-0.11503922194242477,0.04842585325241089
1718607490729994800,70.48699487304688,0.06483840942382812,-0.09319997578859329,0.05849254131317139
1718607490778869000,70.53586889648437,0.049513816833496094,-0.10743515193462372,0.07776463031768799
1718607490827743700,70.58474365234375,0.08678150177001953,-0.1237797811627388,0.0869063138961792
1718607490876618200,70.6336181640625,0.0685720443725586,-0.11349006742238998,0.07461893558502197
1718607490925492500,70.68249243164063,0.0824575424194336,-0.10476912558078766,0.05979788303375244
1718607490974367000,70.73136694335938,0.08041000366210938,-0.09889723360538483,0.048361122608184814
