time,seconds_elapsed,z,y,x
1718607420340786400,0.097786376953125,9.852447509765625,-0.28235307335853577,-0.15254244208335876
1718607420389661200,0.1466611328125,9.836894035339355,-0.2961117923259735,-0.13280165195465088
1718607420438535700,0.19553564453125,9.880562782287598,-0.29790642857551575,-0.20159530639648438
1718607420487410400,0.244410400390625,9.863214492797852,-0.32123643159866333,-0.24167509377002716
1718607420536285000,0.293284912109375,9.858428955078125,-0.26620152592658997,-0.19322042167186737
1718607420585159700,0.34215966796875,9.856036186218262,-0.27038896083831787,-0.16331014037132263
1718607420634034200,0.3910341796875,9.865608215332031,-0.30508488416671753,-0.16151553392410278
1718607420682908700,0.43990869140625,9.865608215332031,-0.3128615617752075,-0.16749759018421173
1718607420731783400,0.488783447265625,9.869196891784668,-0.2961117923259735,-0.12442677468061447
1718607420780658000,0.537657958984375,9.862616539001465,-0.2590230405330658,-0.10707881301641464
1718607420829532700,0.58653271484375,9.861420631408691,-0.28893333673477173,-0.18305093050003052
1718607420878407200,0.6354072265625,9.856036186218262,-0.2991028428077698,-0.25722843408584595
1718607420927282000,0.684281982421875,9.842277526855469,-0.3008974492549896,-0.28175488114356995
1718607420976156400,0.733156494140625,9.874580383300781,-0.2829512655735016,-0.27756741642951965
1718607421025031200,0.78203125,9.838688850402832,-0.2679961323738098,-0.3008974492549896
1718607421073905700,0.83090576171875,9.879366874694824,-0.2757728099822998,-0.25363919138908386
1718607421122780200,0.8797802734375,9.850054740905762,-0.3026920557022095,-0.23210379481315613
1718607421171655000,0.928655029296875,9.882357597351074,-0.3314059376716614,-0.2147558331489563
1718607421220529400,0.977529296875,9.875179290771484,-0.31764721870422363,-0.16271193325519562
1718607421269404200,1.026404052734375,9.856635093688965,-0.27397820353507996,-0.1339980661869049
1718607421318278700,1.075278564453125,9.869196891784668,-0.23210379481315613,-0.09391828626394272
1718607421367153400,1.1241533203125,9.850054740905762,-0.31405797600746155,-0.09810572862625122
1718607421416028000,1.17302783203125,9.870991706848145,-0.30209386348724365,-0.19621145725250244
1718607421464902700,1.221902587890625,9.854242324829102,-0.2913261651992798,-0.27696922421455383
1718607421513777200,1.270777099609375,9.867402076721191,-0.251844584941864,-0.19142581522464752
1718607421562652000,1.31965185546875,9.863214492797852,-0.2997010350227356,-0.15314064919948578
1718607421611526400,1.3685263671875,9.860821723937988,-0.2727817893028259,-0.11964113265275955
1718607421660401200,1.417401123046875,9.863813400268555,-0.34636107087135315,-0.11485548317432404
1718607421709275600,1.466275634765625,9.865009307861328,-0.29371899366378784,-0.1657029688358307
1718607421758150400,1.515150390625,9.861420631408691,-0.26201409101486206,-0.22193430364131927
1718607421807025000,1.56402490234375,9.853045463562012,-0.25722843408584595,-0.2584248483181
1718607421855899400,1.6128994140625,9.861420631408691,-0.2829512655735016,-0.2560320198535919
1718607421904774100,1.661774169921875,9.863813400268555,-0.2913261651992798,-0.22013968229293823
1718607421953649000,1.71064892578125,9.854840278625488,-0.2871387302875519,-0.1746760457754135
1718607422002523400,1.7595234375,9.863214492797852,-0.31465616822242737,-0.16869398951530457
1718607422051398000,1.80839794921875,9.857233047485352,-0.24885354936122894,-0.19980068504810333
1718607422100272600,1.857272705078125,9.906285285949707,-0.2745763957500458,-0.18484555184841156
1718607422149147100,1.906147216796875,9.821340560913086,-0.28175488114356995,-0.15074782073497772
1718607422198022000,1.95502197265625,9.90269660949707,-0.28953152894973755,-0.19262222945690155
1718607422246896400,2.003896484375,9.831509590148926,-0.2763710021972656,-0.22971096634864807
1718607422295771100,2.052771240234375,9.893723487854004,-0.2757728099822998,-0.1381855010986328
1718607422344645600,2.101645751953125,9.848259925842285,-0.2949153780937195,-0.14356936514377594
1718607422393520400,2.150520263671875,9.860821723937988,-0.3032902777194977,-0.20817556977272034
1718607422442395000,2.199394775390625,9.841679573059082,-0.2913261651992798,-0.2554338276386261
1718607422491269600,2.24826953125,9.864411354064941,-0.2829512655735016,-0.19322042167186737
1718607422540144000,2.29714404296875,9.863214492797852,-0.23808585107326508,-0.12681959569454193
1718607422589019000,2.346018798828125,9.850652694702148,-0.28534409403800964,-0.16510476171970367
1718607422637893400,2.394893310546875,9.855438232421875,-0.32243284583091736,-0.20458634197711945
1718607422686768000,2.44376806640625,9.90688419342041,-0.2548356056213379,-0.2392822653055191
1718607422735642600,2.492642578125,9.841679573059082,-0.2548356056213379,-0.24885354936122894
1718607422784517400,2.541517333984375,9.858428955078125,-0.2548356056213379,-0.23748764395713806
1718607422833391900,2.590391845703125,9.855438232421875,-0.36729827523231506,-0.22791635990142822
1718607422882266400,2.639266357421875,9.853045463562012,-0.4019941985607147,-0.2147558331489563
1718607422931141000,2.68814111328125,9.868598937988281,-0.38763725757598877,-0.22911277413368225
1718607422980015900,2.737015869140625,9.876974105834961,-0.32542386651039124,-0.1537388563156128
1718607423028890400,2.785890380859375,9.832706451416016,-0.3684946894645691,-0.10468599200248718
1718607423077764900,2.834764892578125,9.89133071899414,-0.2961117923259735,-0.15672987699508667
1718607423126639600,2.8836396484375,9.750154495239258,-0.3529413342475891,-0.2153540402650833
1718607423175514000,2.93251416015625,9.912267684936523,-0.6622136831283569,-0.19680966436862946
1718607423224388900,2.981388916015625,9.89850902557373,-0.6424728631973267,-0.09631111472845078
1718607423273263400,3.030263427734375,9.858428955078125,-0.3732803463935852,-0.12382857501506805
1718607423322138000,3.07913818359375,9.839884757995605,-0.5006981492042542,-0.2225325107574463
1718607423371012600,3.1280126953125,9.855438232421875,-0.6693921089172363,-0.1704886108636856
1718607423419887400,3.176887451171875,9.863813400268555,-0.641276478767395,-0.1537388563156128
1718607423468761900,3.225761962890625,9.820143699645996,-0.6083751320838928,-0.1908276081085205
1718607423517636600,3.27463671875,9.92243766784668,-0.5252245664596558,-0.1621137410402298
1718607423566511000,3.323510986328125,9.775876998901367,-0.5964110493659973,-0.19202402234077454
1718607423615385900,3.3723857421875,9.827920913696289,-0.706480860710144,-0.2386840581893921
1718607423664260400,3.42126025390625,9.902098655700684,-0.6352944374084473,-0.1860419660806656
1718607423713135000,3.470135009765625,9.825528144836426,-0.8805587291717529,-0.20817556977272034
1718607423762009600,3.519009521484375,9.920642852783203,-0.7591229677200317,-0.2027917206287384
1718607423810884400,3.56788427734375,9.806385040283203,-0.7854440212249756,-0.16809579730033875
1718607423859758800,3.6167587890625,9.835697174072266,-0.8333004713058472,-0.2183450609445572
1718607423908633600,3.665633544921875,9.826126098632812,-0.8919246196746826,-0.2231307178735733
1718607423957508000,3.714508056640625,9.865608215332031,-0.9984052777290344,-0.17108681797981262
1718607424006382800,3.7633828125,9.837491989135742,-0.9445667266845703,-0.22073788940906525
1718607424055257300,3.81225732421875,9.923035621643066,-0.8009973764419556,-0.2721835672855377
1718607424104132000,3.861132080078125,9.767501831054688,-0.9936196208000183,-0.30149564146995544
1718607424153006600,3.910006591796875,9.872187614440918,-1.1306086778640747,-0.2667997181415558
1718607424201881300,3.95888134765625,9.853045463562012,-1.1234302520751953,-0.24825534224510193
1718607424250755800,4.007755859375,9.817152976989746,-1.1802598237991333,-0.2315055876970291
1718607424299630300,4.05663037109375,9.853643417358398,-1.0378868579864502,-0.18544375896453857
1718607424348505000,4.105505126953125,9.797411918640137,-1.1072787046432495,-0.24287149310112
1718607424397379600,4.154379638671875,9.857831001281738,-1.170688509941101,-0.21655045449733734
1718607424446254300,4.20325439453125,9.831509590148926,-1.215553879737854,-0.23808585107326508
1718607424495128800,4.25212890625,9.872786521911621,-1.2095718383789062,-0.2386840581893921
1718607424544003600,4.301003662109375,9.795618057250977,-1.2005987167358398,-0.28534409403800964
1718607424592878000,4.349878173828125,9.892526626586914,-1.2550355195999146,-0.24885354936122894
1718607424641752800,4.3987529296875,9.762118339538574,-1.3052847385406494,-0.25304099917411804
1718607424690627300,4.44762744140625,9.902098655700684,-1.4344971179962158,-0.2667997181415558
1718607424739502000,4.496502197265625,9.834501266479492,-1.4673985242843628,-0.2315055876970291
1718607424788376600,4.54537646484375,9.829116821289062,-1.3824533224105835,-0.23270200192928314
1718607424837251300,4.594251220703125,9.811769485473633,-1.3615161180496216,-0.1944168359041214
1718607424886125800,4.643125732421875,9.779465675354004,-1.4225330352783203,-0.1782652884721756
1718607424935000600,4.69200048828125,9.872187614440918,-1.5122638940811157,-0.251844584941864
1718607424983875000,4.740875,9.843474388122559,-1.4207384586334229,-0.24167509377002716
1718607425032749800,4.789749755859375,9.847661972045898,-1.353141188621521,-0.22552353143692017
1718607425081624300,4.838624267578125,9.821938514709473,-1.3543375730514526,-0.20578274130821228
1718607425130499000,4.8874990234375,9.830313682556152,-1.4799607992172241,-0.14835500717163086
1718607425179373600,4.93637353515625,9.830911636352539,-1.5128620862960815,-0.16749759018421173
1718607425228248300,4.985248291015625,9.834501266479492,-1.3639088869094849,-0.22133609652519226
1718607425277122800,5.034122802734375,9.79262638092041,-1.2849457263946533,-0.31764721870422363
1718607425325997600,5.08299755859375,9.77408218383789,-1.397408366203308,-0.3038884699344635
1718607425374872000,5.1318720703125,9.865009307861328,-1.4889339208602905,-0.22911277413368225
1718607425423746800,5.180746826171875,9.848259925842285,-1.4709876775741577,-0.11126625537872314
1718607425472621300,5.229621337890625,9.838089942932129,-1.3758729696273804,-0.11425728350877762
1718607425521496000,5.27849609375,9.851848602294922,-1.347757339477539,-0.27397820353507996
1718607425570370600,5.32737060546875,9.793225288391113,-1.4069796800613403,-0.22013968229293823
1718607425619245300,5.376245361328125,9.885348320007324,-1.5020943880081177,-0.20817556977272034
1718607425668119800,5.425119873046875,9.885348320007324,-1.4117653369903564,-0.17706887423992157
1718607425716994600,5.47399462890625,9.836296081542969,-1.3298112154006958,-0.2847459018230438
1718607425765869000,5.522869140625,9.876375198364258,-1.3860424757003784,-0.30987054109573364
1718607425814743600,5.57174365234375,9.81117057800293,-1.4315061569213867,-0.19322042167186737
1718607425863618300,5.620618408203125,9.762118339538574,-1.4841482639312744,-0.05922235921025276
1718607425912493000,5.6694931640625,9.841081619262695,-1.4446666240692139,-0.07417750358581543
1718607425961367600,5.718367431640625,9.767501831054688,-1.4105689525604248,-0.1818545162677765
1718607426010242300,5.7672421875,9.826126098632812,-1.3555340766906738,-0.29850462079048157
1718607426059116800,5.81611669921875,9.7998046875,-1.4374881982803345,-0.22133609652519226
1718607426107991600,5.864991455078125,9.81954574584961,-1.4482558965682983,-0.1423729509115219
1718607426156866000,5.913865966796875,9.829715728759766,-1.4482558965682983,-0.0933200865983963
1718607426205740800,5.96274072265625,9.89013385772705,-1.4763715267181396,-0.1788634955883026
1718607426254615300,6.011615234375,9.91825008392334,-1.5337992906570435,-0.2632105052471161
1718607426303489800,6.06048974609375,9.908679008483887,-1.4111671447753906,-0.16510476171970367
1718607426352364500,6.109364501953125,9.802796363830566,-1.44945228099823,-0.13220344483852386
1718607426401239300,6.1582392578125,9.814162254333496,-1.4434702396392822,-0.19381862878799438
1718607426450113800,6.20711376953125,9.848857879638672,-1.5146567821502686,-0.16689938306808472
1718607426498988300,6.25598828125,9.784252166748047,-1.5092729330062866,-0.12681959569454193
1718607426547863000,6.304863037109375,9.757930755615234,-1.4530415534973145,-0.14835500717163086
1718607426596737800,6.35373779296875,9.764511108398438,-1.4195420742034912,-0.1782652884721756
1718607426645612300,6.4026123046875,9.742975234985352,-1.4446666240692139,-0.2027917206287384
1718607426694486800,6.45148681640625,9.851250648498535,-1.5074782371520996,-0.2153540402650833
1718607426743361500,6.500361572265625,9.868000984191895,-1.4261223077774048,-0.17946170270442963
1718607426792236300,6.549236328125,9.965508460998535,-1.389631748199463,-0.15314064919948578
1718607426841110800,6.59811083984375,9.908080101013184,-1.397408366203308,-0.15553347766399384
1718607426889985300,6.6469853515625,9.847063064575195,-1.4506487846374512,-0.2679961323738098
1718607426938860000,6.695860107421875,9.830313682556152,-1.4817553758621216,-0.32602208852767944
1718607426987734800,6.74473486328125,9.827322959899902,-1.4249259233474731,-0.15972091257572174
1718607427036609300,6.793609375,9.795618057250977,-1.4327025413513184,-0.16929219663143158
1718607427085484000,6.842484130859375,9.762118339538574,-1.4141582250595093,-0.2267199456691742
1718607427134358500,6.891358642578125,9.738788604736328,-1.4374881982803345,-0.10827522724866867
1718607427183233000,6.94023291015625,9.837491989135742,-1.466800332069397,-0.02871387079358101
1718607427232107800,6.989107666015625,9.897911071777344,-1.4189438819885254,-0.08255238085985184
1718607427280982500,7.037982421875,9.879366874694824,-1.454237937927246,-0.1782652884721756
1718607427329857000,7.08685693359375,9.80817985534668,-1.3962119817733765,-0.1663011759519577
1718607427378731500,7.1357314453125,9.850652694702148,-1.5050854682922363,-0.08733802288770676
1718607427427606300,7.184606201171875,9.740582466125488,-1.4572290182113647,-0.09032905846834183
1718607427476481000,7.23348095703125,9.78245735168457,-1.4422738552093506,-0.0975075215101242
1718607427525355500,7.28235546875,9.799206733703613,-1.4165509939193726,-0.17108681797981262
1718607427574230300,7.331230224609375,9.893125534057617,-1.466800332069397,-0.2566302418708801
1718607427623104800,7.380104736328125,9.845269203186035,-1.48055899143219,-0.3487538993358612
1718607427671979500,7.4289794921875,9.866206169128418,-1.394417405128479,-0.2679961323738098
1718607427720854000,7.47785400390625,9.848259925842285,-1.4135600328445435,-0.12323036789894104
1718607427769728800,7.526728759765625,9.77408218383789,-1.3956137895584106,-0.12382857501506805
1718607427818603300,7.575603271484375,9.757930755615234,-1.4889339208602905,-0.2027917206287384
1718607427867478000,7.62447802734375,9.820143699645996,-1.5044872760772705,-0.2470589429140091
1718607427916352500,7.6733525390625,9.868598937988281,-1.454836130142212,-0.13459627330303192
1718607427965227300,7.722227294921875,9.933204650878906,-1.4315061569213867,-0.15972091257572174
1718607428014101800,7.771101806640625,9.790233612060547,-1.3830515146255493,-0.20757736265659332
1718607428062976500,7.8199765625,9.750154495239258,-1.3926228284835815,-0.2153540402650833
1718607428111851000,7.86885107421875,9.673583984375,-1.4500504732131958,-0.2476571500301361
1718607428160725800,7.917725830078125,9.729815483093262,-1.420140266418457,-0.26081767678260803
1718607428209600300,7.966600341796875,9.864411354064941,-1.4769697189331055,-0.23389841616153717
1718607428258475000,8.01547509765625,9.847063064575195,-1.4171491861343384,-0.1818545162677765
1718607428307349500,8.064349609375,9.871589660644531,-1.3603196144104004,-0.20159530639648438
1718607428356224300,8.113224365234375,10.007980346679688,-1.4333007335662842,-0.18364913761615753
1718607428405098800,8.1620986328125,9.934999465942383,-1.4446666240692139,-0.12263216078281403
1718607428453973500,8.210973388671874,9.829116821289062,-1.459621787071228,-0.1178465187549591
1718607428502848000,8.259847900390625,9.877572059631348,-1.4817553758621216,-0.11306086927652359
1718607428551722800,8.30872265625,9.920642852783203,-1.4679967164993286,-0.06281159073114395
1718607428600597200,8.35759716796875,9.731609344482422,-1.4231312274932861,-0.005982056725770235
1718607428649472000,8.406471923828125,9.642477035522461,-1.4386845827102661,-0.13998012244701385
1718607428698346800,8.4553466796875,9.69212818145752,-1.425524115562439,-0.1950150430202484
1718607428747221200,8.50422119140625,9.805787086486816,-1.4111671447753906,-0.2757728099822998
1718607428796096000,8.553095947265625,9.807581901550293,-1.404586911201477,-0.32123643159866333
1718607428844970500,8.601970458984376,9.759725570678711,-1.4267204999923706,-0.37926238775253296
1718607428893845200,8.65084521484375,10.006784439086914,-1.4608181715011597,-0.19680966436862946
1718607428942719700,8.6997197265625,10.009775161743164,-1.4464613199234009,0.061016976833343506
1718607428991594500,8.748594482421876,10.021141052246094,-1.4985052347183228,-0.09152546525001526
1718607429040469000,8.797468994140624,9.969097137451172,-1.4799607992172241,-0.44027936458587646
1718607429089343700,8.84634375,9.856036186218262,-1.3046865463256836,-0.4265206456184387
1718607429138218200,8.89521826171875,9.565906524658203,-1.3106685876846313,-0.2189432680606842
1718607429187093000,8.944093017578124,9.56052303314209,-1.4243277311325073,-0.09212367236614227
1718607429235967700,8.9929677734375,9.647262573242188,-1.5361921787261963,-0.09451649338006973
1718607429284842200,9.04184228515625,9.826126098632812,-1.5044872760772705,-0.21774685382843018
1718607429333717000,9.090717041015624,9.854840278625488,-1.4039887189865112,-0.3756731450557709
1718607429382591500,9.139591552734375,9.956535339355469,-1.350150227546692,-0.3242274820804596
1718607429431466200,9.18846630859375,10.005587577819824,-1.3489537239074707,-0.09032905846834183
1718607429480340700,9.2373408203125,9.980463027954102,-1.3938192129135132,-0.016749758273363113
1718607429529215500,9.286215576171875,10.02592658996582,-1.5451651811599731,-0.12143574655056
1718607429578090000,9.335090087890626,9.811769485473633,-1.4578272104263306,-0.16331014037132263
1718607429626964700,9.38396484375,9.635298728942871,-1.368694543838501,-0.22851456701755524
1718607429675839200,9.432839111328125,9.68794059753418,-1.3764712810516357,-0.2392822653055191
1718607429724714000,9.4817138671875,9.66939640045166,-1.470389485359192,-0.1333998590707779
1718607429773588700,9.530588623046874,9.848259925842285,-1.4913266897201538,-0.09870393574237823
1718607429822463200,9.579463134765625,9.836296081542969,-1.500898003578186,-0.23748764395713806
1718607429871338000,9.628337890625,9.966106414794922,-1.3872389793395996,-0.1585244983434677
1718607429920212500,9.67721240234375,9.91286563873291,-1.3399807214736938,0.026919255033135414
1718607429969087200,9.726087158203125,9.996614456176758,-1.5804593563079834,0.038285162299871445
1718607430017961700,9.774961669921876,9.741181373596191,-1.4895321130752563,-0.05922235921025276
1718607430066836500,9.82383642578125,9.70349407196045,-1.4620146751403809,-0.07836493849754333
1718607430115711000,9.8727109375,9.716055870056152,-1.4446666240692139,-0.052043892443180084
1718607430164585700,9.921585693359376,9.93559741973877,-1.4488540887832642,-0.04486542567610741
1718607430213460500,9.97046044921875,9.795019149780273,-1.4500504732131958,-0.09391828626394272
1718607430262335000,10.0193349609375,9.886545181274414,-1.5469598770141602,-0.028115665540099144
1718607430311209700,10.068209716796876,9.930811882019043,-1.3830515146255493,0.019740786403417587
1718607430360084200,10.117084228515624,9.867402076721191,-1.4488540887832642,-0.052043892443180084
1718607430408959000,10.165958984375,9.740582466125488,-1.4297115802764893,-0.24526432156562805
1718607430457833500,10.21483349609375,9.604191780090332,-1.5397813320159912,-0.17587246000766754
1718607430506708200,10.263708251953124,9.78843879699707,-1.506281852722168,0.01734796352684498
1718607430555582700,10.312582763671875,9.950552940368652,-1.5152549743652344,-0.06999006122350693
1718607430604457500,10.36145751953125,9.920642852783203,-1.3902299404144287,-0.2021935135126114
1718607430653332200,10.410332275390624,9.824930191040039,-1.5068800449371338,-0.19680966436862946
1718607430702206700,10.459206787109375,10.000204086303711,-1.4051851034164429,0.04007977992296219
1718607430751081500,10.50808154296875,9.90149974822998,-1.526620864868164,0.04905286431312561
1718607430799956000,10.5569560546875,9.663414001464844,-1.3453645706176758,-0.23808585107326508
1718607430848830700,10.605830810546875,9.613762855529785,-1.6121642589569092,-0.397208571434021
1718607430897705200,10.654705322265626,9.880562782287598,-1.5248262882232666,-0.17168502509593964
1718607430946580000,10.703580078125,9.93679428100586,-1.4590235948562622,-0.01136590726673603
1718607430995454700,10.752454833984375,9.7938232421875,-1.4673985242843628,-0.04666004329919815
1718607431044329200,10.8013291015625,9.832706451416016,-1.6271194219589233,-0.07178468257188797
1718607431093204000,10.850203857421874,9.906285285949707,-1.4039887189865112,0.06939185410737991
1718607431142078500,10.899078369140625,10.00439167022705,-1.41834557056427,0.1782652884721756
1718607431190953200,10.947953125,9.692726135253906,-1.4123635292053223,-0.08315058797597885
1718607431239827700,10.99682763671875,9.648459434509277,-1.542174220085144,-0.3840480446815491
1718607431288702500,11.045702392578125,9.701101303100586,-1.3627125024795532,-0.33080771565437317
1718607431337577200,11.0945771484375,9.824930191040039,-1.2969099283218384,-0.23270200192928314
1718607431386451700,11.14345166015625,9.818349838256836,-1.4572290182113647,-0.29371899366378784
1718607431435326500,11.192326416015625,9.856036186218262,-1.3800604343414307,-0.13519448041915894
1718607431484201000,11.241200927734376,9.77826976776123,-1.4787644147872925,0.06580262631177902
1718607431533075700,11.29007568359375,9.773484230041504,-1.353141188621521,-0.0364905446767807
1718607431581950500,11.338950439453125,9.845269203186035,-1.5547364950180054,-0.28115665912628174
1718607431630825000,11.387824951171876,10.095318794250488,-1.40279221534729,-0.26560330390930176
1718607431679699700,11.43669970703125,9.817750930786133,-1.3196417093276978,-0.4540380835533142
1718607431728574200,11.48557421875,9.853045463562012,-1.1718848943710327,-0.3888336718082428
1718607431777449000,11.534448974609376,9.872786521911621,-1.2424731254577637,-0.16031911969184875
1718607431826323700,11.58332373046875,9.911669731140137,-1.292722463607788,0.019740786403417587
1718607431875198200,11.6321982421875,9.760921478271484,-1.48055899143219,-0.07178468257188797
1718607431924073000,11.681072998046876,9.77527904510498,-1.3250255584716797,-0.2877369225025177
1718607431972947500,11.729947509765625,9.853045463562012,-1.2340983152389526,-0.30209386348724365
1718607432021822200,11.778822265625,9.718449592590332,-1.1904292106628418,-0.1543370634317398
1718607432070697000,11.827697021484376,9.972686767578125,-1.2861422300338745,-0.12203395366668701
1718607432119571500,11.876571533203125,10.0612211227417,-1.184447169303894,-0.2153540402650833
1718607432168446200,11.9254462890625,9.933204650878906,-1.2418749332427979,-0.35473597049713135
1718607432217320700,11.97432080078125,9.80100154876709,-1.3040883541107178,-0.3409772217273712
1718607432266195500,12.023195556640625,9.968499183654785,-1.2556337118148804,-0.3774677813053131
1718607432315070000,12.072070068359375,9.639486312866211,-1.0875378847122192,-0.3966103494167328
1718607432363944700,12.12094482421875,9.704689979553223,-1.2233306169509888,-0.39960137009620667
1718607432412819500,12.1698193359375,9.836894035339355,-1.293320655822754,-0.22073788940906525
1718607432461694000,12.21869384765625,9.764511108398438,-1.179063320159912,-0.2554338276386261
1718607432510568700,12.267568603515626,9.437292098999023,-1.2831511497497559,-0.5132604837417603
1718607432559443200,12.316443115234375,9.780662536621094,-1.3794622421264648,-0.5970092415809631
1718607432608318000,12.36531787109375,9.92841911315918,-1.1736794710159302,-0.3810569941997528
1718607432657192700,12.414192626953126,9.832706451416016,-1.1772687435150146,-0.2949153780937195
1718607432706067200,12.463067138671875,10.109077453613281,-1.2586246728897095,-0.2548356056213379
1718607432754942000,12.51194189453125,10.032506942749023,-0.9846464991569519,-0.2069791555404663
1718607432803816700,12.560816650390626,9.798608779907227,-1.012762188911438,-0.25363919138908386
1718607432852691200,12.609691162109375,9.866206169128418,-1.0965110063552856,-0.29431718587875366
1718607432901566000,12.65856591796875,9.863214492797852,-0.9565308690071106,-0.10827522724866867
1718607432950440400,12.7074404296875,9.882357597351074,-0.9798609018325806,-0.05802594870328903
1718607432999315200,12.756315185546875,9.814760208129883,-1.048654556274414,-0.16390834748744965
1718607433048189700,12.805189697265625,9.739984512329102,-1.1018948554992676,-0.2554338276386261
1718607433097064400,12.854064453125,9.474381446838379,-1.1060823202133179,-0.2835494875907898
1718607433145939200,12.902939208984375,9.837491989135742,-1.160519003868103,-0.20099709928035736
1718607433194813700,12.951813720703125,10.04447078704834,-1.0360921621322632,-0.09990034252405167
1718607433243688400,13.0006884765625,10.05703353881836,-1.0139585733413696,-0.14297115802764893
1718607433292563200,13.049563232421875,9.951150894165039,-0.9379864931106567,-0.32542386651039124
1718607433341437700,13.098437744140625,9.791430473327637,-0.8566305041313171,-0.3840480446815491
1718607433390312400,13.1473125,9.795019149780273,-1.1150553226470947,-0.41156548261642456
1718607433439187000,13.19618701171875,10.080962181091309,-1.1264212131500244,-0.17766708135604858
1718607433488061700,13.245061767578125,9.941579818725586,-0.9954141974449158,-0.19800607860088348
1718607433536936400,13.2939365234375,9.850652694702148,-0.828514814376831,-0.33918261528015137
1718607433585811000,13.34281103515625,9.630513191223145,-0.7680960893630981,-0.355932354927063
1718607433634685700,13.391685791015625,9.576674461364746,-1.0911271572113037,-0.25782662630081177
1718607433683560400,13.440560546875,9.617352485656738,-1.3621143102645874,-0.3774677813053131
1718607433732435000,13.48943505859375,9.961918830871582,-1.1431710720062256,-0.372682124376297
1718607433781309700,13.538309814453125,9.808777809143066,-0.8721838593482971,-0.37088751792907715
1718607433830184200,13.58718408203125,9.78544807434082,-0.735194742679596,-0.3409772217273712
1718607433879059000,13.636058837890625,9.92961597442627,-0.7680960893630981,-0.29312077164649963
1718607433927933400,13.684933349609375,9.855438232421875,-1.0839486122131348,-0.267397940158844
1718607433976808200,13.73380810546875,10.104291915893555,-1.0701899528503418,-0.3607180118560791
1718607434025683000,13.782682861328125,9.801599502563477,-0.8231309652328491,-0.49351966381073
1718607434074557700,13.8315576171875,9.868000984191895,-0.8153542876243591,-0.43968117237091064
1718607434123432200,13.88043212890625,9.946365356445312,-0.7890332937240601,-0.15194423496723175
1718607434172307000,13.929306884765625,9.78544807434082,-0.9577272534370422,-0.010169495828449726
1718607434221181400,13.978181396484375,9.879964828491211,-1.1976077556610107,-0.373878538608551
1718607434270056200,14.02705615234375,10.072587013244629,-0.9044869542121887,-0.503689169883728
1718607434318931000,14.075930908203125,9.8207426071167,-0.7076773047447205,-0.1663011759519577
1718607434367805400,14.124805419921875,9.745368003845215,-0.8859425783157349,-0.11724831163883209
1718607434416680200,14.17368017578125,9.93978500366211,-0.8476574420928955,-0.005982056725770235
1718607434465554700,14.2225546875,9.989436149597168,-1.0223335027694702,0.064606212079525
1718607434514429400,14.271429443359375,10.124032974243164,-0.9074779748916626,-0.14715859293937683
1718607434563304200,14.32030419921875,9.878170013427734,-0.7423732280731201,-0.2961117923259735
1718607434612178700,14.3691787109375,9.937392234802246,-0.7393822073936462,-0.12023933976888657
1718607434661053400,14.418053466796875,9.973284721374512,-0.7381857633590698,0.11724831163883209
1718607434709928200,14.46692822265625,9.802796363830566,-1.0941181182861328,-0.02273181453347206
1718607434758802700,14.515802734375,9.942177772521973,-1.1150553226470947,-0.4366901218891144
1718607434807677400,14.564677490234375,9.777671813964844,-0.8171489238739014,-0.600000262260437
1718607434856552000,14.613552001953124,9.647262573242188,-0.6945167779922485,-0.5389832854270935
1718607434905426700,14.6624267578125,9.714859962463379,-0.7692924737930298,-0.503689169883728
1718607434954301400,14.711301513671875,9.512666702270508,-1.01814603805542,-0.5288137793540955
1718607435003176200,14.76017626953125,9.81117057800293,-1.0618150234222412,-0.6520441770553589
1718607435052050700,14.80905078125,9.784252166748047,-0.7537391185760498,-0.6514459848403931
1718607435100925400,14.857925537109375,9.872786521911621,-0.5928218364715576,-0.4061816334724426
1718607435149800000,14.906800048828124,10.002596855163574,-0.6831508874893188,-0.22133609652519226
1718607435198674700,14.9556748046875,10.091729164123535,-1.0707881450653076,-0.20578274130821228
1718607435247549400,15.004549560546875,10.749755859375,-1.2089736461639404,-0.2392822653055191
1718607435296424000,15.053423828125,10.598409652709961,-0.8823533654212952,-0.19980068504810333
1718607435345298700,15.102298583984375,10.211968421936035,-0.6299105882644653,-0.23988047242164612
1718607435394173200,15.151173095703125,10.210174560546875,-0.5712863802909851,-0.24526432156562805
1718607435443048000,15.2000478515625,9.868000984191895,-0.9768698215484619,-0.18305093050003052
1718607435491922700,15.248922607421875,9.972686767578125,-1.0516455173492432,-0.2590230405330658
1718607435540797400,15.29779736328125,9.538389205932617,-0.7692924737930298,-0.33080771565437317
1718607435589672000,15.346671875,9.364311218261719,-0.6813562512397766,-0.4456632137298584
1718607435638546700,15.395546630859375,9.419944763183594,-0.729810893535614,-0.4695914387702942
1718607435687421200,15.444421142578125,9.491130828857422,-1.0336993932724,-0.49292147159576416
1718607435736296000,15.4932958984375,9.982855796813965,-1.0689935684204102,-0.5982056856155396
1718607435785170700,15.542170654296875,9.889535903930664,-0.7435696125030518,-0.6759724020957947
1718607435834045200,15.591045166015626,9.892526626586914,-0.6394818425178528,-0.7854440212249756
1718607435882920000,15.639919921875,10.0612211227417,-0.6921239495277405,-0.6849454641342163
1718607435931794700,15.688794677734375,10.202995300292969,-0.9924231767654419,-0.4001995921134949
1718607435980669200,15.737669189453126,10.319047927856445,-0.9553344249725342,-0.3690928816795349
1718607436029544000,15.7865439453125,9.904491424560547,-0.7046862840652466,-0.3481557071208954
1718607436078418700,15.835418701171875,9.818349838256836,-0.6017948985099792,-0.20937198400497437
1718607436127293200,15.884293212890626,9.45045280456543,-0.6957131624221802,-0.0849452018737793
1718607436176168000,15.93316796875,9.662816047668457,-1.028315544128418,-0.05024927482008934
1718607436225042700,15.982042724609375,9.617950439453125,-0.8937192559242249,-0.29850462079048157
1718607436273917200,16.030917236328126,9.513862609863281,-0.8231309652328491,-0.5479564070701599
1718607436322792000,16.0797919921875,9.594022750854492,-0.544965386390686,-0.5641079545021057
1718607436371666700,16.128666748046875,9.68913745880127,-0.7172485589981079,-0.45284169912338257
1718607436420541200,16.177541259765626,10.156933784484863,-1.064207911491394,-0.5527420043945312
1718607436469416000,16.226416015625,10.152148246765137,-0.9589236974716187,-0.5688936114311218
1718607436518290400,16.27529052734375,10.022337913513184,-0.6293123364448547,-0.3696911036968231
1718607436567165200,16.324165283203126,9.831509590148926,-0.2225325107574463,-0.19680966436862946
1718607436616040000,16.3730400390625,9.861420631408691,-0.638883650302887,-0.006580262444913387
1718607436664914400,16.42191455078125,9.910472869873047,-0.9050851464271545,-0.08434699475765228
1718607436713789200,16.4707890625,9.82373332977295,-1.0163514614105225,-0.22013968229293823
1718607436762664000,16.519663818359376,9.614361763000488,-0.7956135272979736,-0.31465616822242737
1718607436811538400,16.568538330078123,9.625128746032715,-0.6885347366333008,-0.22492532432079315
1718607436860413200,16.6174130859375,9.990633010864258,-0.844068169593811,-0.26440688967704773
1718607436909288000,16.666287841796876,10.055238723754883,-0.7441678643226624,-0.35533416271209717
1718607436958162400,16.715162353515623,9.644271850585938,-0.5952146053314209,-0.23389841616153717
1718607437007037200,16.764037109375,9.594022750854492,-0.47676992416381836,-0.20099709928035736
1718607437055912000,16.812911865234376,9.783653259277344,-0.7986045479774475,0.050847481936216354
1718607437104786400,16.861786376953123,9.93978500366211,-0.8937192559242249,0.09451649338006973
1718607437153661200,16.9106611328125,9.559326171875,-0.7471588850021362,-0.08554340898990631
1718607437202536000,16.959535888671876,9.991828918457031,-0.5706881880760193,-0.11964113265275955
1718607437251410400,17.008410400390623,9.878767967224121,-0.6687939167022705,0.15134602785110474
1718607437300285200,17.05728515625,10.154541015625,-0.9122636318206787,-0.08853443711996078
1718607437349160000,17.106159912109376,10.049257278442383,-0.7328019142150879,-0.2949153780937195
1718607437398034400,17.155034423828123,9.818947792053223,-0.45942193269729614,-0.24646073579788208
1718607437446909200,17.2039091796875,9.559326171875,-0.5479564070701599,-0.2841476798057556
1718607437495784000,17.252783935546876,9.811769485473633,-0.9391828775405884,-0.3284149169921875
1718607437544658400,17.301658447265623,9.56351375579834,-0.7130611538887024,-0.45224347710609436
1718607437593533200,17.350533203125,9.254241943359375,-0.5611169338226318,-0.5126622319221497
1718607437642408000,17.399407958984376,9.584450721740723,-0.45104706287384033,-0.45523449778556824
1718607437691282400,17.448282470703123,9.893723487854004,-0.5623133182525635,-0.31465616822242737
1718607437740157200,17.4971572265625,10.13180923461914,-0.7465606927871704,-0.2871387302875519
1718607437789032000,17.546031982421876,10.005587577819824,-0.672383189201355,-0.3164508044719696
1718607437837906400,17.594906494140623,10.264012336730957,-0.49710890650749207,-0.29012975096702576
1718607437886781200,17.64378125,9.879366874694824,-0.582054078578949,-0.1986042857170105
1718607437935656000,17.692656005859376,10.141979217529297,-0.7465606927871704,-0.3164508044719696
1718607437984530400,17.741530517578123,9.757930755615234,-0.5138586759567261,-0.5096712112426758
1718607438033405200,17.7904052734375,9.494122505187988,-0.45284169912338257,-0.6113662123680115
1718607438082280000,17.839280029296877,9.230911254882812,-0.4259224236011505,-0.6047859191894531
1718607438131154400,17.888154541015624,9.556933403015137,-0.778863787651062,-0.4013960063457489
1718607438180029200,17.937029296875,9.638887405395508,-0.672383189201355,-0.3487538993358612
1718607438228904000,17.985904052734377,9.689735412597656,-0.3577269911766052,-0.35892340540885925
1718607438277778400,18.0347783203125,9.712467193603516,0.004785645287483931,-0.3445664644241333
1718607438326653200,18.083653076171874,10.03011417388916,-0.3278166949748993,-0.251844584941864
1718607438375528000,18.13252783203125,10.141979217529297,-0.5198407173156738,-0.4061816334724426
1718607438424402400,18.18140234375,10.369894981384277,-0.4713860750198364,-0.4366901218891144
1718607438473277200,18.230277099609374,10.262218475341797,0.08434699475765228,-0.35892340540885925
1718607438522152000,18.27915185546875,10.0343017578125,0.10767702013254166,-0.4097708761692047
1718607438571026400,18.3280263671875,10.372885704040527,-0.1501496136188507,-0.5000999569892883
1718607438619901200,18.376901123046874,9.833304405212402,-0.28235307335853577,-0.4492524564266205
1718607438668776000,18.42577587890625,9.678369522094727,-0.010767702013254166,-0.494716078042984
1718607438717650400,18.474650390625,9.57607650756836,0.038285162299871445,-0.2991028428077698
1718607438766525200,18.523525146484374,9.745368003845215,-0.04905286431312561,-0.363709032535553
1718607438815400000,18.57239990234375,9.394820213317871,-0.1698904037475586,-0.7776673436164856
1718607438864274400,18.6212744140625,9.501898765563965,-0.30927231907844543,-0.9236295223236084
1718607438913149200,18.670149169921874,9.8207426071167,0.1788634955883026,-0.7501499056816101
1718607438962024000,18.71902392578125,9.993025779724121,0.3086741268634796,-0.6664010882377625
1718607439010898400,18.7678984375,9.830313682556152,0.4181457459926605,-0.8045865893363953
1718607439059773200,18.816773193359374,10.060623168945312,0.11605189740657806,-0.6610172390937805
1718607439108648000,18.86564794921875,10.214960098266602,0.9954141974449158,-0.24406790733337402
1718607439157522400,18.9145224609375,9.718449592590332,0.6191428303718567,0.038285162299871445
1718607439206397200,18.963397216796874,10.18026351928711,0.2566302418708801,-0.22612173855304718
1718607439255272000,19.01227197265625,10.15573787689209,0.38703906536102295,-0.05383851006627083
1718607439304146400,19.061146484375,9.602995872497559,1.3710874319076538,-0.08374879509210587
1718607439353021200,19.110021240234374,10.055238723754883,0.6287141442298889,-0.3595215976238251
1718607439401896000,19.15889599609375,9.966704368591309,0.380458801984787,-0.5413761138916016
1718607439450770400,19.2077705078125,9.759127616882324,0.7286145091056824,-0.3852444589138031
1718607439499645200,19.256645263671874,9.07537841796875,1.0863415002822876,-0.5676971673965454
1718607439548520000,19.30552001953125,9.69930648803711,1.0205388069152832,-0.4492524564266205
1718607439597394400,19.35439453125,9.645467758178711,1.1132607460021973,-0.23330020904541016
1718607439646269200,19.403269287109374,9.56650447845459,0.7411768436431885,-0.4133601188659668
1718607439695144000,19.45214404296875,9.605388641357422,0.7806583642959595,-0.4546363055706024
1718607439744018400,19.501018310546876,9.893125534057617,0.8997012972831726,-0.20398813486099243
1718607439792893200,19.54989306640625,10.25324535369873,0.8997012972831726,-0.24107688665390015
1718607439841768000,19.598767822265625,10.104889869689941,0.9254241585731506,-0.4540380835533142
1718607439890642400,19.647642333984376,10.122238159179688,0.7956135272979736,-0.5389832854270935
1718607439939517200,19.69651708984375,10.066604614257812,1.155733346939087,-0.45284169912338257
1718607439988391700,19.7453916015625,10.065408706665039,1.2741780281066895,-0.36191442608833313
1718607440037266400,19.794266357421876,9.872786521911621,1.2526426315307617,-0.5330012440681458
1718607440086141200,19.84314111328125,9.709476470947266,1.0067801475524902,-0.4049852192401886
1718607440135015700,19.892015625,9.829116821289062,1.1018948554992676,-0.259621262550354
1718607440183890400,19.940890380859376,9.984650611877441,1.357926845550537,-0.03170489892363548
1718607440232765200,19.98976513671875,10.074381828308105,1.714457392692566,-0.0849452018737793
1718607440281640000,20.038639892578125,9.765109062194824,1.7641085386276245,-0.3720839321613312
1718607440330514400,20.087514404296876,9.80817985534668,1.4913266897201538,-0.43549370765686035
1718607440379389200,20.13638916015625,9.758528709411621,1.4350954294204712,-0.2847459018230438
1718607440428263700,20.185263671875,10.130014419555664,1.308275818824768,-0.22013968229293823
1718607440477138400,20.234138427734376,10.153943061828613,1.4057832956314087,-0.4091726839542389
1718607440526013200,20.28301318359375,9.625128746032715,1.7030915021896362,-0.27397820353507996
1718607440574887700,20.3318876953125,9.765109062194824,1.5391831398010254,-0.13040883839130402
1718607440623762400,20.380762451171876,9.701101303100586,1.5230315923690796,0.14895321428775787
1718607440672637200,20.42963720703125,9.892526626586914,1.4476577043533325,0.3678964674472809
1718607440721511700,20.47851171875,9.717252731323242,1.3028919696807861,0.04307080805301666
1718607440770386400,20.527386474609376,9.651450157165527,1.262213945388794,-0.07537391036748886
1718607440819261200,20.57626123046875,9.765707015991211,1.0402796268463135,-0.04187439754605293
1718607440868135700,20.6251357421875,9.824331283569336,1.033101201057434,-0.2554338276386261
1718607440917010400,20.674010498046876,10.316056251525879,1.100698471069336,-0.4953143000602722
1718607440965885200,20.72288525390625,9.970293998718262,1.389631748199463,-0.7740781307220459
1718607441014759700,20.771759765625,9.762118339538574,1.2059825658798218,-0.8548358678817749
1718607441063634400,20.820634521484376,9.867402076721191,1.0564311742782593,-0.7040880918502808
1718607441112509200,20.86950927734375,10.074381828308105,0.8243274092674255,-0.44386860728263855
1718607441161383700,20.9183837890625,10.005587577819824,1.038485050201416,-0.5383850932121277
1718607441210258400,20.967258544921876,9.57188892364502,1.200000524520874,-0.5694918036460876
1718607441259133000,21.0161328125,9.77527904510498,1.1904292106628418,-0.3768695592880249
1718607441308007700,21.065007568359373,9.745368003845215,1.2610175609588623,-0.017946170642971992
1718607441356882400,21.11388232421875,9.90987491607666,1.0600204467773438,0.06640082597732544
1718607441405757000,21.1627568359375,10.069596290588379,1.1156535148620605,-0.1178465187549591
1718607441454631700,21.211631591796873,9.6466646194458,1.2442678213119507,-0.12741780281066895
1718607441503506400,21.26050634765625,9.795618057250977,1.1318050622940063,-0.07477571070194244
1718607441552381000,21.309380859375,9.890732765197754,1.205384373664856,-0.02273181453347206
1718607441601255700,21.358255615234373,10.187442779541016,1.327418327331543,-0.18424734473228455
1718607441650130400,21.40713037109375,9.963713645935059,1.40279221534729,-0.4701896607875824
1718607441699005000,21.4560048828125,9.68375301361084,1.290927767753601,-0.6095715761184692
1718607441747879700,21.504879638671873,9.738189697265625,1.210170030593872,-0.32243284583091736
1718607441796754400,21.55375439453125,9.732806205749512,1.3764712810516357,-0.1256231814622879
1718607441845629000,21.60262890625,9.917651176452637,1.140179991722107,-0.2955136001110077
1718607441894503700,21.651503662109373,9.916455268859863,1.2035897970199585,-0.4905286431312561
1718607441943378400,21.70037841796875,9.671789169311523,0.9768698215484619,-0.5312066078186035
1718607441992253000,21.7492529296875,9.77707290649414,0.97926265001297,-0.34695929288864136
1718607442041127700,21.798127685546874,9.90149974822998,1.1359925270080566,-0.004187439568340778
1718607442090002200,21.847002197265624,10.055837631225586,1.0151549577713013,-0.12681959569454193
1718607442138877000,21.895876953125,9.978668212890625,1.0067801475524902,-0.35413774847984314
1718607442187751700,21.944751708984374,9.806385040283203,0.916451096534729,-0.39601215720176697
1718607442236626200,21.993626220703124,9.8267240524292,0.9930213689804077,-0.23988047242164612
1718607442285501000,22.0425009765625,9.777671813964844,1.1832507848739624,-0.1788634955883026
1718607442334375700,22.091375732421874,9.630513191223145,1.1539387702941895,-0.3684946894645691
1718607442383250200,22.140250244140624,9.840482711791992,0.9409775137901306,-0.5018945336341858
1718607442432125000,22.189125,9.618548393249512,1.0199406147003174,-0.5443671345710754
1718607442480999700,22.237999755859374,9.55513858795166,1.0378868579864502,-0.550349235534668
1718607442529874200,22.286874267578124,9.735198974609375,1.1467602252960205,-0.4576273262500763
1718607442578749000,22.3357490234375,9.849455833435059,1.4572290182113647,-0.3278166949748993
1718607442627623700,22.384623779296874,9.841081619262695,1.1186445951461792,-0.3888336718082428
1718607442676498200,22.433498291015624,10.1814603805542,0.8584251403808594,-0.364905446767807
1718607442725373000,22.482373046875,10.094121932983398,1.033101201057434,-0.27816563844680786
1718607442774247400,22.531247314453125,10.016355514526367,1.2741780281066895,-0.28953152894973755
1718607442823122200,22.5801220703125,9.90269660949707,1.4979069232940674,-0.16689938306808472
1718607442871997000,22.628996826171875,9.853045463562012,1.181456208229065,-0.022133609279990196
1718607442920871400,22.677871337890625,9.910472869873047,0.8075776696205139,-0.06819544732570648
1718607442969746200,22.72674609375,9.820143699645996,0.9780662655830383,-0.13459627330303192
1718607443018621000,22.775620849609375,9.617950439453125,1.222732424736023,-0.37507495284080505
1718607443067495400,22.824495361328125,9.851250648498535,1.3280165195465088,-0.3595215976238251
1718607443116370200,22.8733701171875,9.874580383300781,1.4117653369903564,-0.21595224738121033
1718607443165245000,22.922244873046875,9.613762855529785,0.9762716293334961,-0.25722843408584595
1718607443214119400,22.971119384765625,9.988240242004395,0.7417750358581543,-0.27756741642951965
1718607443262994200,23.019994140625,9.722636222839355,1.0498509407043457,-0.35413774847984314
1718607443311868700,23.06886865234375,10.04148006439209,1.064207911491394,-0.4624129831790924
1718607443360743400,23.117743408203125,9.80399227142334,1.1497513055801392,-0.3355933725833893
1718607443409618200,23.1666181640625,9.799206733703613,1.0564311742782593,-0.2273181527853012
1718607443458492700,23.21549267578125,9.765707015991211,0.7280163168907166,-0.23330020904541016
1718607443507367400,23.264367431640625,10.033703804016113,0.7166503667831421,-0.2231307178735733
1718607443556242200,23.3132421875,9.80937671661377,0.9457631707191467,-0.4468596279621124
1718607443605116700,23.36211669921875,9.896714210510254,0.9852447509765625,-0.646660327911377
1718607443653991400,23.410991455078126,9.812965393066406,0.9463613629341125,-0.4468596279621124
1718607443702866200,23.4598662109375,9.820143699645996,0.8506484627723694,-0.22791635990142822
1718607443751740700,23.50874072265625,9.759725570678711,0.6472585201263428,-0.2386840581893921
1718607443800615400,23.557615478515626,9.89432144165039,0.7088736891746521,-0.21296121180057526
1718607443849490000,23.606489990234376,9.777671813964844,0.8111668825149536,-0.3409772217273712
1718607443898364700,23.65536474609375,9.954142570495605,0.9044869542121887,-0.3930211067199707
1718607443947239400,23.704239501953126,9.986445426940918,0.9804590940475464,-0.18125630915164948
1718607443996114000,23.753114013671876,9.969695091247559,0.9589236974716187,-0.12921242415905
1718607444044988700,23.80198876953125,9.575477600097656,0.6442674994468689,-0.15493527054786682
1718607444093863400,23.850863525390626,9.873384475708008,0.3696911036968231,-0.10707881301641464
1718607444142738000,23.899738037109376,10.1216402053833,0.7902296781539917,-0.11485548317432404
1718607444191612700,23.94861279296875,10.0343017578125,1.0151549577713013,-0.4666004180908203
1718607444240487400,23.9974873046875,9.824331283569336,0.9643075466156006,-0.6221339106559753
1718607444289362000,24.04636181640625,9.687342643737793,0.7268198728561401,-0.389431893825531
1718607444338236700,24.095236572265627,9.613164901733398,0.5084748268127441,-0.1950150430202484
1718607444387111200,24.144111083984374,9.900303840637207,0.3690928816795349,-0.23688943684101105
1718607444435986000,24.19298583984375,9.963713645935059,0.5419743061065674,-0.3858426511287689
1718607444484860700,24.241860595703123,9.834501266479492,0.7292127013206482,-0.6131607890129089
1718607444533735200,24.290735107421874,9.862018585205078,0.6885347366333008,-0.5353940725326538
1718607444582610000,24.33960986328125,9.896714210510254,0.40259242057800293,-0.29371899366378784
1718607444631484700,24.388484619140623,9.872187614440918,0.2721835672855377,-0.32961133122444153
1718607444680359200,24.437359130859374,9.79801082611084,0.2805584669113159,-0.4372883439064026
1718607444729234000,24.48623388671875,9.878170013427734,0.503689169883728,-0.5718846321105957
1718607444778108400,24.5351083984375,9.924830436706543,0.5964110493659973,-0.5826523303985596
1718607444826983200,24.583983154296874,9.770493507385254,0.4414757788181305,-0.5389832854270935
1718607444875858000,24.63285791015625,9.725627899169922,0.22612173855304718,-0.48813581466674805
1718607444924732400,24.681732421875,9.965508460998535,0.34217363595962524,-0.27696922421455383
1718607444973607200,24.730607177734374,9.959526062011719,0.5108676552772522,-0.24227328598499298
1718607445022482000,24.77948193359375,9.733404159545898,0.3684946894645691,-0.3720839321613312
1718607445071356400,24.8283564453125,9.824331283569336,0.12622138857841492,-0.4061816334724426
1718607445120231200,24.877231201171874,9.76989459991455,0.2470589429140091,-0.4211367964744568
1718607445169106000,24.92610595703125,10.137192726135254,0.4821537733078003,-0.4504488706588745
1718607445217980400,24.97498046875,9.970891952514648,0.7902296781539917,-0.355932354927063
1718607445266855200,25.023855224609374,9.955338478088379,0.4103690981864929,-0.3206382393836975
1718607445315729700,25.072729736328125,9.66939640045166,-0.11006984114646912,-0.1381855010986328
1718607445364604400,25.1216044921875,10.118050575256348,-0.1740778535604477,0.09272187948226929
1718607445413479200,25.170479248046874,9.8267240524292,0.1866401731967926,-0.08015955984592438
1718607445462353700,25.219353759765625,9.975079536437988,0.45643091201782227,-0.3840480446815491
1718607445511228400,25.268228515625,9.92243766784668,0.5060819983482361,-0.4181457459926605
1718607445560103200,25.317103271484374,9.842875480651855,0.4061816334724426,-0.27756741642951965
1718607445608977700,25.365977783203125,9.766305923461914,-0.10648060590028763,-0.09092725813388824
1718607445657852400,25.414852294921875,9.659825325012207,-0.36191442608833313,-0.022133609279990196
1718607445706727000,25.463726806640626,10.050453186035156,0.010169495828449726,-0.1704886108636856
1718607445755601700,25.5126015625,9.874580383300781,0.4743770956993103,-0.32961133122444153
1718607445804476200,25.56147607421875,9.920044898986816,0.40319061279296875,-0.50907301902771
1718607445853351000,25.610350830078126,9.688538551330566,0.19142581522464752,-0.4420739710330963
1718607445902225700,25.6592255859375,9.944570541381836,0.10707881301641464,-0.22851456701755524
1718607445951109000,25.708109130859373,9.805787086486816,0.20757736265659332,-0.13639089465141296
1718607445999983900,25.75698388671875,9.908679008483887,0.10348957777023315,-0.38344982266426086
1718607446048858400,25.8058583984375,9.982257843017578,-0.02273181453347206,-0.5000999569892883
1718607446097733000,25.854733154296873,9.79801082611084,0.49710890650749207,-0.4827519655227661
1718607446146607900,25.90360791015625,9.797411918640137,0.3164508044719696,-0.6735795736312866
1718607446195482400,25.952482421875,9.821340560913086,0.11964113265275955,-0.7304090857505798
1718607446244357000,26.001357177734373,9.918848037719727,-0.022133609279990196,-0.41874396800994873
1718607446293231900,26.05023193359375,9.831509590148926,0.09930214285850525,-0.30628129839897156
1718607446342106400,26.0991064453125,9.81954574584961,-0.01136590726673603,-0.36729827523231506
1718607446390981000,26.147981201171874,9.885947227478027,-0.11844471842050552,-0.39122650027275085
1718607446439855600,26.196855712890624,9.900303840637207,0.013160524889826775,-0.5413761138916016
1718607446488730400,26.24573046875,9.830313682556152,0.17288143932819366,-0.576670229434967
1718607446537605000,26.294605224609374,10.013364791870117,0.19621145725250244,-0.43609192967414856
1718607446586479600,26.343479736328124,9.802796363830566,-0.19680966436862946,-0.28235307335853577
1718607446635354400,26.392354248046875,9.989436149597168,-0.10827522724866867,-0.1052841991186142
1718607446684229000,26.44122900390625,9.705288887023926,-0.10348957777023315,-0.12263216078281403
1718607446733103600,26.490103515625,9.956535339355469,-0.13280165195465088,-0.2350948303937912
1718607446781978400,26.538978271484375,9.875179290771484,0.02871387079358101,-0.3152543902397156
1718607446830852900,26.587852783203125,9.686744689941406,0.3523431420326233,-0.46899324655532837
1718607446879727600,26.6367275390625,10.117452621459961,0.022133609279990196,-0.3858426511287689
1718607446928602000,26.68560205078125,9.67777156829834,0.17647066712379456,-0.2793620526790619
1718607446977476900,26.734476806640625,9.756135940551758,-0.2069791555404663,-0.3188436031341553
1718607447026351600,26.7833515625,9.82373332977295,-0.3158525824546814,-0.3068794906139374
1718607447075226000,26.83222607421875,10.001399993896484,-0.064606212079525,-0.1902294009923935
1718607447124100900,26.881100830078125,10.063613891601562,0.14715859293937683,-0.4899304509162903
1718607447172975600,26.9299755859375,9.698110580444336,0.5150550603866577,-0.6538388133049011
1718607447221850000,26.97885009765625,9.90688419342041,0.3601198196411133,-0.45643091201782227
1718607447270724900,27.027724853515625,9.835099220275879,-0.21774685382843018,-0.2925225794315338
1718607447319599400,27.076599365234376,9.837491989135742,-0.0323031060397625,-0.23210379481315613
1718607447368474000,27.12547412109375,9.80518913269043,-0.11186445504426956,-0.22492532432079315
1718607447417348900,27.174348876953125,9.844072341918945,-0.16331014037132263,-0.3643072545528412
1718607447466223400,27.223223388671876,9.836296081542969,0.22492532432079315,-0.42293140292167664
1718607447515098000,27.27209814453125,9.949356079101562,0.4492524564266205,-0.40677985548973083
1718607447563972600,27.32097265625,9.725028991699219,0.0729810893535614,-0.33918261528015137
1718607447612847400,27.369847412109376,10.013364791870117,-0.3170489966869354,-0.10049854964017868
1718607447661722000,27.41872216796875,9.731609344482422,-0.21714866161346436,-0.2763710021972656
1718607447710596600,27.4675966796875,10.055837631225586,-0.1052841991186142,-0.3332005441188812
1718607447759471400,27.516471435546876,9.704689979553223,0.08973085135221481,-0.5324030518531799
1718607447808345900,27.565345947265627,9.856036186218262,0.07836493849754333,-0.7172485589981079
1718607447857220600,27.614220703125,9.949954986572266,-0.07118647545576096,-0.5234299302101135
1718607447906095400,27.663095458984376,9.890732765197754,0.1495514214038849,-0.25782662630081177
1718607447954969900,27.711969970703127,9.697511672973633,0.019142581149935722,-0.2727817893028259
1718607448003844600,27.7608447265625,9.839884757995605,-0.1543370634317398,-0.39960137009620667
1718607448052719000,27.809718994140624,9.988838195800781,-0.052043892443180084,-0.28235307335853577
1718607448101593900,27.85859375,9.942177772521973,0.13639089465141296,-0.4701896607875824
1718607448150468600,27.907468505859374,9.866206169128418,0.29790642857551575,-0.5060819983482361
1718607448199343000,27.956343017578124,9.883553504943848,0.2805584669113159,-0.3720839321613312
1718607448248217900,28.0052177734375,9.728618621826172,0.03290131315588951,-0.23988047242164612
1718607448297092400,28.05409228515625,9.584450721740723,-0.22013968229293823,-0.10707881301641464
1718607448345967000,28.102967041015624,9.973882675170898,-0.3678964674472809,-0.05024927482008934
1718607448394841600,28.151841552734375,9.853045463562012,0.04247260093688965,-0.17168502509593964
1718607448443716400,28.20071630859375,9.89551830291748,0.36670008301734924,-0.39840495586395264
1718607448492591000,28.249591064453124,9.827322959899902,0.02632104977965355,-0.4695914387702942
1718607448541465600,28.298465576171875,10.0612211227417,0.129810631275177,-0.42352959513664246
1718607448590340400,28.34734033203125,9.807581901550293,-0.02871387079358101,-0.2638086974620819
1718607448639214800,28.39621484375,9.897313117980957,-0.18305093050003052,-0.2877369225025177
1718607448688089600,28.445089599609375,9.825528144836426,-0.07537391036748886,-0.18065811693668365
1718607448736964400,28.49396435546875,10.149157524108887,0.014955141581594944,-0.4815555512905121
1718607448785838800,28.5428388671875,9.940383911132812,0.19800607860088348,-0.5676971673965454
1718607448834713600,28.591713623046875,9.8871431350708,0.13639089465141296,-0.31764721870422363
1718607448883588400,28.64058837890625,9.710672378540039,-0.019740786403417587,-0.22073788940906525
1718607448932462800,28.689462890625,9.588638305664062,-0.17587246000766754,0.049651071429252625
1718607448981337600,28.738337646484375,10.001998901367188,-0.31465616822242737,-0.08853443711996078
1718607449030212000,28.787212158203126,9.937990188598633,-0.13280165195465088,-0.2189432680606842
1718607449079086800,28.8360869140625,9.993025779724121,0.16929219663143158,-0.5563312768936157
1718607449127961300,28.88496142578125,9.874580383300781,0.23449662327766418,-0.534795880317688
1718607449176836000,28.933836181640626,9.978070259094238,0.20877377688884735,-0.2626122832298279
1718607449225710800,28.9827109375,9.705288887023926,0.09511470049619675,-0.21595224738121033
1718607449274585300,29.03158544921875,9.767501831054688,-0.2721835672855377,-0.36311084032058716
1718607449323460000,29.080460205078126,9.872786521911621,-0.35533416271209717,-0.35413774847984314
1718607449372334600,29.12933447265625,9.847063064575195,0.14656038582324982,-0.4061816334724426
1718607449421209300,29.178209228515627,9.830911636352539,0.49172505736351013,-0.6340979933738708
1718607449470083800,29.227083740234374,9.613164901733398,0.2907279431819916,-0.6514459848403931
1718607449518958600,29.27595849609375,9.868000984191895,-0.12622138857841492,-0.349352091550827
1718607449567833300,29.324833251953127,9.620343208312988,-0.1453639715909958,-0.2021935135126114
1718607449616707800,29.373707763671874,10.14317512512207,-0.2919243574142456,-0.33080771565437317
1718607449665582600,29.42258251953125,9.966106414794922,0.12861421704292297,-0.3756731450557709
1718607449714457000,29.47145703125,10.053443908691406,0.14476576447486877,-0.5946164131164551
1718607449763331800,29.520331787109374,9.768698692321777,0.2021935135126114,-0.7334001660346985
1718607449812206300,29.569206298828124,10.06421184539795,0.12143574655056,-0.494716078042984
1718607449861081000,29.6180810546875,9.934999465942383,0.18783657252788544,-0.4773681163787842
1718607449909955800,29.666955810546874,9.81535816192627,-0.10229317098855972,-0.38644084334373474
1718607449958830300,29.715830322265624,9.772886276245117,-0.2548356056213379,-0.364905446767807
1718607450007705000,29.764705078125,9.987043380737305,-0.23330020904541016,-0.2961117923259735
1718607450056579600,29.81357958984375,9.942776679992676,0.37866419553756714,-0.5282155871391296
1718607450105454300,29.862454345703124,9.882357597351074,0.4061816334724426,-0.5682953596115112
1718607450154328800,29.911328857421875,9.65503978729248,-0.14416755735874176,-0.5240281820297241
1718607450203203600,29.96020361328125,9.836296081542969,-0.24047867953777313,-0.11724831163883209
1718607450252078300,30.009078369140624,9.783055305480957,-0.35054850578308105,0.054436713457107544
1718607450300952800,30.057952880859375,10.085747718811035,-0.014955141581594944,-0.050847481936216354
1718607450349827600,30.10682763671875,9.664012908935547,0.13040883839130402,-0.1453639715909958
1718607450398702000,30.1557021484375,10.036096572875977,0.38225340843200684,-0.35533416271209717
1718607450447576800,30.204576904296875,9.93679428100586,0.1740778535604477,-0.18364913761615753
1718607450496451300,30.253451416015626,9.760323524475098,0.19740787148475647,-0.13280165195465088
1718607450545326000,30.302326171875,9.695717811584473,-0.07118647545576096,-0.2632105052471161
1718607450594200600,30.35120068359375,9.855438232421875,-0.3523431420326233,-0.355932354927063
1718607450643075300,30.400075439453126,10.094720840454102,-0.14356936514377594,-0.26141586899757385
1718607450691949800,30.44894970703125,10.006186485290527,0.19680966436862946,-0.49292147159576416
1718607450740824600,30.497824462890627,9.583852767944336,0.6735795736312866,-0.7357929348945618
1718607450789699300,30.54669921875,9.839884757995605,0.2273181527853012,-0.6921239495277405
1718607450838573800,30.59557373046875,9.874580383300781,-0.30568310618400574,-0.41156548261642456
1718607450887448600,30.644448486328123,9.859027862548828,-0.15732808411121368,-0.1788634955883026
1718607450936323000,30.693322998046874,9.831509590148926,-0.11545369029045105,-0.3038884699344635
1718607450985197800,30.74219775390625,9.575477600097656,0.20159530639648438,-0.4695914387702942
1718607451034072600,30.791072509765623,10.04267692565918,0.11186445504426956,-0.5772684812545776
1718607451082947000,30.839947021484374,10.092926025390625,-0.05623133108019829,-0.4468596279621124
1718607451131821800,30.88882177734375,9.851848602294922,-0.0077766734175384045,-0.4426721930503845
1718607451180696300,30.9376962890625,9.507881164550781,0.037088751792907715,-0.4773681163787842
1718607451229571000,30.986571044921874,9.659226417541504,0.008973085321485996,-0.3451646566390991
1718607451278445600,31.035445556640624,9.963713645935059,0.05563312768936157,0.008973085321485996
1718607451327320300,31.0843203125,9.927821159362793,-0.01375873014330864,-0.0891326442360878
1718607451376194800,31.13319482421875,9.926624298095703,0.14656038582324982,-0.4331009089946747
1718607451425069600,31.182069580078124,9.973882675170898,0.2584248483181,-0.30149564146995544
1718607451473944000,31.230944091796875,9.730413436889648,0.20817556977272034,-0.08135596662759781
1718607451522818800,31.27981884765625,9.905089378356934,-0.035892341285943985,-0.12203395366668701
1718607451571693300,31.328693359375,10.211370468139648,-0.21415762603282928,-0.2476571500301361
1718607451620568000,31.377568115234375,10.15872859954834,-0.06281159073114395,-0.3535395562648773
1718607451669442800,31.42644287109375,9.870991706848145,0.349352091550827,-0.5802595019340515
1718607451718317300,31.4753173828125,9.989436149597168,0.381655216217041,-0.4737788736820221
1718607451767192000,31.524192138671875,9.7005033493042,0.14715859293937683,-0.3774677813053131
1718607451816066600,31.573066650390626,9.760323524475098,-0.1698904037475586,-0.20578274130821228
1718607451864941300,31.62194140625,9.384650230407715,-0.2829512655735016,-0.33020952343940735
1718607451913815800,31.67081591796875,9.963115692138672,-0.08973085135221481,-0.35473597049713135
1718607451962690600,31.719690673828126,9.844072341918945,0.2584248483181,-0.48873403668403625
1718607452011565000,31.76856494140625,9.795019149780273,0.33798620104789734,-0.7339983582496643
1718607452060439800,31.817439697265623,9.687342643737793,-0.08614161610603333,-0.7561319470405579
1718607452109314300,31.866314208984374,9.870393753051758,0.07058826833963394,-0.4827519655227661
1718607452158189000,31.91518896484375,9.619745254516602,0.08554340898990631,-0.09870393574237823
1718607452207063800,31.964063720703123,9.975677490234375,-0.01196411345154047,-0.129810631275177
1718607452255938300,32.012938232421874,10.141979217529297,0.0526420995593071,-0.07657032459974289
1718607452304813000,32.06181298828125,10.195816993713379,0.07058826833963394,-0.06999006122350693
1718607452353687600,32.1106875,9.864411354064941,0.31405797600746155,0.061016976833343506
1718607452402562300,32.15956225585938,9.942776679992676,0.05802594870328903,0.1788634955883026
1718607452451436800,32.20843676757813,9.628120422363281,0.0029910283628851175,0.07776673883199692
1718607452500311600,32.2573115234375,9.748359680175781,-0.18364913761615753,-0.137587308883667
1718607452549186000,32.30618603515625,10.217352867126465,-0.15314064919948578,-0.16091732680797577
1718607452598060800,32.355060791015624,9.914660453796387,0.27337998151779175,-0.6604190468788147
1718607452646935300,32.403935302734375,9.7064847946167,0.30568310618400574,-0.8913264274597168
1718607452695810000,32.45281005859375,9.794421195983887,-0.0077766734175384045,-0.900897741317749
1718607452744684800,32.50168481445313,10.194023132324219,-0.05922235921025276,-0.4827519655227661
1718607452793559300,32.55055932617187,9.865608215332031,0.14715859293937683,-0.4372883439064026
1718607452842434000,32.59943408203125,9.659825325012207,0.09810572862625122,-0.7854440212249756
1718607452891308500,32.64830859375,9.80518913269043,0.08973085135221481,-0.6843472719192505
1718607452940183300,32.697183349609375,9.798608779907227,0.22612173855304718,-0.3924229145050049
1718607452989057800,32.746057861328126,9.904491424560547,0.22492532432079315,-0.18903298676013947
1718607453037932500,32.7949326171875,9.831509590148926,0.028115665540099144,-0.1256231814622879
1718607453086807000,32.84380712890625,9.629316329956055,0.10289137065410614,0.010767702013254166
1718607453135681800,32.89268188476562,9.585647583007812,0.2111666053533554,-0.005982056725770235
1718607453184556300,32.94155639648437,9.92243766784668,-0.21176479756832123,0.018544375896453857
1718607453233431000,32.99043115234375,9.920044898986816,-0.25244277715682983,-0.15254244208335876
1718607453282305500,33.039305419921874,10.185647964477539,0.2386840581893921,-0.17228323221206665
1718607453331180300,33.08818017578125,10.0343017578125,0.5808576941490173,-0.3403790295124054
1718607453380054800,33.1370546875,9.674779891967773,0.25064817070961,-0.2745763957500458
1718607453428929500,33.18592944335938,9.77527904510498,-0.2757728099822998,-0.3415754437446594
1718607453477804300,33.23480419921875,9.968499183654785,-0.2913261651992798,-0.27397820353507996
1718607453526678800,33.2836787109375,9.847063064575195,0.1866401731967926,-0.22073788940906525
1718607453575553500,33.332553466796874,9.517452239990234,0.37866419553756714,-0.4618147611618042
1718607453624428000,33.381427978515624,10.179665565490723,0.2721835672855377,-0.28654050827026367
1718607453673302800,33.430302734375,10.14616584777832,-0.06520441919565201,-0.052043892443180084
1718607453722177300,33.47917724609375,9.569496154785156,0.08195417374372482,-0.14057832956314087
1718607453771052000,33.52805200195313,9.21416187286377,-0.05503492057323456,-0.26919254660606384
1718607453819926500,33.57692651367187,10.231709480285645,-0.1010967567563057,-0.20338992774486542
1718607453868801300,33.62580126953125,9.993623733520508,0.20997019112110138,-0.11006984114646912
1718607453917675800,33.67467578125,10.122238159179688,0.2961117923259735,-0.4983053207397461
1718607453966550500,33.723550537109375,9.664610862731934,0.19920247793197632,-0.6753742098808289
1718607454015425000,33.772425048828126,9.959526062011719,0.18484555184841156,-0.32961133122444153
1718607454064299800,33.8212998046875,9.708877563476562,0.0771685317158699,-0.02871387079358101
1718607454113174300,33.87017431640625,9.674779891967773,-0.16929219663143158,-0.14297115802764893
1718607454162049000,33.91904907226562,10.02592658996582,-0.24885354936122894,-0.24945175647735596
1718607454210923500,33.96792358398437,9.76989459991455,0.44386860728263855,-0.19322042167186737
1718607454259798300,34.01679833984375,10.119247436523438,0.5557330846786499,-0.10648060590028763
1718607454308672800,34.0656728515625,9.799206733703613,-0.07537391036748886,-0.11425728350877762
1718607454357547500,34.114547607421876,9.969695091247559,-0.23330020904541016,-0.06699903309345245
1718607454406422000,34.16342211914063,9.538389205932617,-0.10289137065410614,-0.2626122832298279
1718607454455296800,34.212296875,9.883553504943848,0.12861421704292297,-0.576670229434967
1718607454504171300,34.26117114257813,9.976275444030762,0.3397808074951172,-0.617946445941925
1718607454553046000,34.3100458984375,9.860821723937988,0.3535395562648773,-0.7615157961845398
1718607454601920500,34.35892041015625,9.554540634155273,0.1986042857170105,-0.8967102766036987
1718607454650795300,34.407795166015624,9.795019149780273,0.07477571070194244,-0.6059823632240295
1718607454699670000,34.456669921875,9.664012908935547,0.2183450609445572,-0.33439695835113525
1718607454748544500,34.50554443359375,9.838688850402832,0.20877377688884735,-0.3756731450557709
1718607454797419000,34.5544189453125,10.070194244384766,0.2273181527853012,-0.38344982266426086
1718607454846293800,34.60329370117187,10.118050575256348,0.4331009089946747,-0.2763710021972656
1718607454895168500,34.65216845703125,9.7998046875,0.26560330390930176,-0.13938191533088684
1718607454944043000,34.70104296875,9.979267120361328,0.06759724020957947,0.07058826833963394
1718607454992917500,34.74991748046875,9.814162254333496,0.04247260093688965,0.15254244208335876
1718607455041792300,34.798792236328126,9.774680137634277,-0.046061836183071136,-0.17228323221206665
1718607455090666800,34.847666748046876,9.76391315460205,0.047258246690034866,-0.49651068449020386
1718607455139541500,34.89654150390625,9.81236743927002,0.29790642857551575,-0.5521438121795654
1718607455188416300,34.94541625976562,9.748359680175781,0.3966103494167328,-0.6562315821647644
1718607455237290800,34.99429077148437,9.861420631408691,0.19740787148475647,-0.44805604219436646
1718607455286165200,35.04316528320312,9.803394317626953,-0.001794616924598813,-0.24945175647735596
1718607455335040000,35.0920400390625,9.7669038772583,0.05503492057323456,-0.22133609652519226
1718607455383914800,35.140914794921876,9.707083702087402,0.07896314561367035,-0.2913261651992798
1718607455432789200,35.18978930664063,10.067801475524902,0.005383851006627083,-0.35473597049713135
1718607455481663700,35.23866381835938,9.789037704467773,0.11006984114646912,-0.5467599630355835
1718607455530538500,35.28753857421875,9.880562782287598,0.24885354936122894,-0.7926225066184998
1718607455579413200,35.33641333007812,9.668798446655273,0.1818545162677765,-0.8297112584114075
1718607455628287700,35.385287841796874,9.967302322387695,0.026919255033135414,-0.8159525394439697
1718607455677162200,35.434162353515624,9.847063064575195,0.07178468257188797,-0.8111668825149536
1718607455726037000,35.483037109375,10.006784439086914,0.053240302950143814,-0.7722834944725037
1718607455774911500,35.531911376953126,10.000204086303711,0.10767702013254166,-0.5395814776420593
1718607455823786200,35.5807861328125,10.060623168945312,-0.10289137065410614,-0.46061834692955017
1718607455872660700,35.62966064453125,10.092328071594238,0.20458634197711945,-0.5611169338226318
1718607455921535500,35.67853540039062,10.055238723754883,0.28175488114356995,-0.6873382925987244
1718607455970410000,35.72740991210937,9.765109062194824,0.16091732680797577,-0.8231309652328491
1718607456019284700,35.77628466796875,9.732208251953125,0.06400800496339798,-0.7758727669715881
1718607456068159200,35.8251591796875,9.952347755432129,0.04666004329919815,-0.7292127013206482
1718607456117034000,35.874033935546876,9.842277526855469,0.13998012244701385,-0.8685946464538574
1718607456165908500,35.92290844726563,9.849455833435059,0.17347964644432068,-1.0654042959213257
1718607456214783200,35.971783203125,10.028918266296387,0.16749759018421173,-1.124626636505127
1718607456263657700,36.02065771484375,9.879964828491211,0.33738797903060913,-0.9224331378936768
1718607456312532500,36.06953247070312,9.815957069396973,0.17587246000766754,-0.8512466549873352
1718607456361407000,36.118406982421874,9.865608215332031,-0.34995031356811523,-0.8973084688186646
1718607456410281700,36.16728173828125,10.045069694519043,-0.17288143932819366,-0.7950153350830078
1718607456459156200,36.21615625,10.132407188415527,0.6017948985099792,-0.8267202377319336
1718607456508031000,36.26503100585938,9.79801082611084,0.5994020700454712,-1.0007981061935425
1718607456556905500,36.31390551757813,9.89850902557373,0.9308080077171326,-1.0223335027694702
1718607456605780200,36.3627802734375,9.355338096618652,0.2476571500301361,-0.6640082597732544
1718607456654654700,36.41165478515625,10.01037311553955,-0.4666004180908203,-0.7896314859390259
1718607456703529500,36.460529541015624,9.550353050231934,-0.23210379481315613,-0.7052844762802124
1718607456752404000,36.509404052734375,10.078569412231445,-0.7417750358581543,-0.9326026439666748
1718607456801278700,36.55827880859375,10.183255195617676,0.6149554252624512,-1.1772687435150146
1718607456850153200,36.6071533203125,9.610772132873535,1.1431710720062256,-0.9158528447151184
1718607456899028000,36.65602807617187,10.102497100830078,-0.09391828626394272,-0.989432156085968
1718607456947902500,36.70490234375,9.731609344482422,-0.5228317379951477,-0.7268198728561401
1718607456996777000,36.75377685546875,10.14616584777832,-0.8560323119163513,-0.4504488706588745
1718607457045651700,36.80265161132812,10.156335830688477,-0.004785645287483931,-0.745364248752594
1718607457094526500,36.8515263671875,9.870991706848145,0.3284149169921875,-0.8811569213867188
1718607457143401000,36.90040087890625,10.152148246765137,0.47916272282600403,-1.1365907192230225
1718607457192275500,36.949275390625,9.701699256896973,-0.31405797600746155,-0.9068797826766968
1718607457241150200,36.99815014648438,9.929018020629883,-0.275174617767334,-0.6771687865257263
1718607457290024700,37.04702465820313,9.724431037902832,-0.41096729040145874,-0.711864709854126
1718607457338899500,37.0958994140625,9.685547828674316,-0.2309073805809021,-0.9708877801895142
1718607457387774000,37.14477392578125,10.272985458374023,0.1453639715909958,-0.9924231767654419
1718607457436648700,37.193648681640624,9.654440879821777,0.2829512655735016,-1.1168500185012817
1718607457485523200,37.242523193359375,9.969695091247559,0.18005990982055664,-1.017547845840454
1718607457534398000,37.29139794921875,9.65085220336914,-0.0029910283628851175,-0.7381857633590698
1718607457583272400,37.3402724609375,10.02413272857666,-0.09451649338006973,-0.6209374666213989
1718607457632147200,37.38914721679687,9.836296081542969,-0.0077766734175384045,-0.5742774605751038
1718607457681021700,37.43802172851562,9.835099220275879,0.06340979784727097,-0.4654040038585663
1718607457729896400,37.486896484375,10.06421184539795,0.07118647545576096,-0.373878538608551
1718607457778771000,37.53577099609375,9.993623733520508,0.01136590726673603,-0.46002015471458435
1718607457827645700,37.584645751953126,9.934999465942383,0.004187439568340778,-0.7034898400306702
1718607457876520200,37.633520263671876,9.546764373779297,0.2027917206287384,-0.8141579031944275
1718607457925394700,37.68239477539063,10.077372550964355,0.09930214285850525,-0.8608179688453674
1718607457974269400,37.73126953125,9.7005033493042,-0.12622138857841492,-0.8129615187644958
1718607458023144000,37.78014404296875,10.064809799194336,-0.2267199456691742,-0.8781659007072449
1718607458072018700,37.82901879882812,9.809974670410156,0.19322042167186737,-0.9619147181510925
1718607458120893200,37.87789306640625,9.835099220275879,0.13579268753528595,-1.0618150234222412
1718607458169768000,37.926767822265624,9.961320877075195,0.14715859293937683,-1.3148560523986816
1718607458218642400,37.975642333984375,9.843474388122559,0.04486542567610741,-1.40279221534729
1718607458267517200,38.02451708984375,10.050453186035156,-0.08554340898990631,-1.3250255584716797
1718607458316391700,38.0733916015625,9.670592308044434,-0.10229317098855972,-1.1994023323059082
1718607458365266200,38.12226611328125,10.093523979187012,0.12861421704292297,-1.2233306169509888
1718607458414141000,38.17114086914062,10.047462463378906,0.2967100143432617,-1.0414760112762451
1718607458463015400,38.22001538085937,9.882955551147461,0.17228323221206665,-0.9314061999320984
1718607458511890200,38.26889013671875,9.875179290771484,-0.07537391036748886,-0.8506484627723694
1718607458560764700,38.3177646484375,9.748957633972168,-0.14356936514377594,-0.7429714202880859
1718607458609639400,38.366639404296876,9.822537422180176,-0.0729810893535614,-0.592223584651947
1718607458658514000,38.41551391601563,9.78544807434082,0.007178467698395252,-0.6610172390937805
1718607458707388700,38.464388671875,9.869794845581055,0.08853443711996078,-0.7322037220001221
1718607458756263200,38.51326318359375,9.879964828491211,0.14297115802764893,-0.5940182209014893
1718607458805138000,38.56213793945312,9.943374633789062,0.0526420995593071,-0.3517449200153351
1718607458854012400,38.611012451171874,10.039087295532227,0.017946170642971992,-0.25423741340637207
1718607458902887000,38.659886962890624,10.01037311553955,-0.061016976833343506,0.03290131315588951
1718607458951761700,38.70876171875,10.04267692565918,-0.18903298676013947,-0.010169495828449726
1718607459000636200,38.75763623046875,10.15573787689209,-0.10707881301641464,-0.10887342691421509
1718607459049511000,38.80651098632813,10.06421184539795,0.09930214285850525,-0.251844584941864
1718607459098385400,38.85538549804688,10.059426307678223,0.26979073882102966,-0.28115665912628174
1718607459147260200,38.90426025390625,9.988240242004395,0.10289137065410614,-0.23210379481315613
1718607459196134700,38.953134765625,10.111470222473145,-0.23030917346477509,-0.267397940158844
1718607459245009400,39.002009521484375,9.884750366210938,-0.24586252868175507,-0.3529413342475891
1718607459293884000,39.0508837890625,9.862616539001465,-0.05144568532705307,-0.597607433795929
1718607459342758400,39.09975830078125,9.999606132507324,0.12382857501506805,-0.7040880918502808
1718607459391633200,39.14863305664063,9.882955551147461,0.08015955984592438,-0.7758727669715881
1718607459440507600,39.19750756835938,10.023533821105957,-0.02273181453347206,-0.8685946464538574
1718607459489382400,39.24638232421875,9.880562782287598,0.001794616924598813,-0.9720842242240906
1718607459538257000,39.2952568359375,10.164112091064453,-0.053240302950143814,-0.8793623447418213
1718607459587131600,39.344131591796874,9.401400566101074,-0.0023928226437419653,-0.8410771489143372
1718607459636006100,39.393006103515624,10.080962181091309,-0.07537391036748886,-0.8075776696205139
1718607459684881000,39.441880859375,9.647860527038574,-0.02392822690308094,-0.8231309652328491
1718607459733755400,39.49075537109375,9.904491424560547,0.1950150430202484,-0.9110672473907471
1718607459782630000,39.5396298828125,9.709476470947266,0.11724831163883209,-0.99481600522995
1718607459831504600,39.58850463867188,9.93260669708252,-0.013160524889826775,-0.8470591902732849
1718607459880379100,39.63737915039062,9.8267240524292,-0.15972091257572174,-0.7836494445800781
1718607459929254000,39.68625390625,9.835697174072266,-0.26979073882102966,-1.052243709564209
1718607459978128400,39.73512841796875,9.857831001281738,0.028115665540099144,-1.2047861814498901
1718607460027003100,39.784003173828125,9.863813400268555,0.26141586899757385,-1.2634103298187256
1718607460075877600,39.832877685546876,9.837491989135742,0.19621145725250244,-1.3926228284835815
1718607460124752100,39.88175219726563,10.066006660461426,0.059820566326379776,-1.4632110595703125
1718607460173627000,39.930626953125,10.006186485290527,0.18843477964401245,-1.207179069519043
1718607460222501400,39.97950146484375,9.784850120544434,0.02392822690308094,-1.1736794710159302
1718607460271376100,40.02837622070312,10.194023132324219,0.18005990982055664,-1.262213945388794
1718607460320250600,40.077250732421874,9.890732765197754,0.33858439326286316,-1.1234302520751953
1718607460369125400,40.12612548828125,9.892526626586914,0.17587246000766754,-1.0612168312072754
1718607460418000000,40.174999755859375,9.685547828674316,0.10827522724866867,-0.8500502705574036
1718607460466874400,40.223874267578125,9.963115692138672,0.12622138857841492,-0.5252245664596558
1718607460515749000,40.2727490234375,9.897911071777344,0.23210379481315613,-0.3415754437446594
1718607460564623600,40.32162353515625,9.890732765197754,-0.009571290574967861,-0.36311084032058716
1718607460613498400,40.37049829101562,9.937392234802246,0.04247260093688965,-0.35473597049713135
1718607460662372900,40.41937280273437,9.742975234985352,0.11964113265275955,-0.2189432680606842
1718607460711247400,40.46824731445312,9.967901229858398,0.2153540402650833,-0.15074782073497772
1718607460760122000,40.5171220703125,10.024730682373047,0.11724831163883209,-0.1256231814622879
1718607460808996600,40.56599658203125,10.182058334350586,0.1657029688358307,-0.20578274130821228
1718607460857871400,40.61487133789063,9.847063064575195,0.006580262444913387,-0.42771705985069275
1718607460906745900,40.66374584960938,9.970891952514648,-0.24287149310112,-0.5575276613235474
1718607460955620400,40.71262036132813,9.969695091247559,-0.2512463629245758,-0.5108676552772522
1718607461004495000,40.7614951171875,10.353145599365234,-0.07357929646968842,-0.656829833984375
1718607461053369600,40.81036962890625,9.851848602294922,0.5892325639724731,-0.9367900490760803
1718607461102244400,40.859244384765624,10.091729164123535,0.4977070987224579,-0.9912267923355103
1718607461151118800,40.908118896484375,9.982257843017578,0.064606212079525,-1.0187442302703857
1718607461199993600,40.95699365234375,9.756135940551758,-0.38763725757598877,-0.8799605369567871
1718607461248868000,41.0058681640625,9.982855796813965,-0.363709032535553,-0.7968099117279053
1718607461297742600,41.05474267578125,10.191031455993652,-0.24945175647735596,-0.6849454641342163
1718607461346617300,41.10361743164062,10.002596855163574,0.37447673082351685,-0.9888339638710022
1718607461395491800,41.15249194335937,10.086943626403809,0.39062830805778503,-1.098903775215149
1718607461444366600,41.20136669921875,9.869196891784668,0.19381862878799438,-1.0342975854873657
1718607461493241000,41.25024096679687,9.78245735168457,-0.35832518339157104,-0.7543373107910156
1718607461542115600,41.299115478515624,9.78664493560791,-0.6137589812278748,-0.7016952633857727
1718607461590990300,41.347990234375,9.851848602294922,-0.20937198400497437,-0.7950153350830078
1718607461639864800,41.39686474609375,9.641280174255371,0.09092725813388824,-0.9373882412910461
1718607461688739600,41.44573950195313,9.831509590148926,0.15672987699508667,-1.0049854516983032
1718607461737614000,41.49461401367188,10.077970504760742,-0.020338991656899452,-0.753140926361084
1718607461786488600,41.54348852539062,9.985847473144531,-0.1902294009923935,-0.7339983582496643
1718607461835363300,41.59236328125,9.79681396484375,-0.1657029688358307,-0.8733802437782288
1718607461884237800,41.64123779296875,10.217950820922852,-0.20937198400497437,-0.8111668825149536
1718607461933112600,41.690112548828125,10.006784439086914,-0.064606212079525,-0.8219345808029175
1718607461981987000,41.738987060546876,10.153943061828613,0.059820566326379776,-0.9218349456787109
1718607462030861800,41.78786181640625,9.812965393066406,0.07178468257188797,-0.9565308690071106
1718607462079736300,41.836736328125,10.012765884399414,-0.13938191533088684,-0.9433703422546387
1718607462128610800,41.88561083984375,10.062417030334473,-0.15254244208335876,-1.0582258701324463
1718607462177485600,41.93448559570312,10.141979217529297,-0.025722842663526535,-1.0875378847122192
1718607462226360000,41.98336010742187,9.817750930786133,0.20099709928035736,-1.1886346340179443
1718607462275234800,42.03223486328125,9.69930648803711,0.23688943684101105,-1.0534402132034302
1718607462324109300,42.081109375,10.00857925415039,0.16689938306808472,-0.9122636318206787
1718607462372983800,42.12998388671875,10.185647964477539,0.14656038582324982,-0.5700899958610535
1718607462421858600,42.17885864257813,9.717850685119629,0.048454657196998596,-0.5222335457801819
1718607462470733000,42.22773315429688,9.958329200744629,-0.1944168359041214,-0.6263213157653809
1718607462519607800,42.27660791015625,9.818947792053223,0.18723836541175842,-0.5461617708206177
1718607462568482300,42.325482421875,9.720243453979492,0.30568310618400574,-0.41874396800994873
1718607462617356800,42.37435668945312,9.860223770141602,0.10827522724866867,-0.4301098585128784
1718607462666231600,42.4232314453125,9.789037704467773,0.2027917206287384,-0.5306084156036377
1718607462715106000,42.47210595703125,10.097113609313965,0.4875376224517822,-0.5030909776687622
1718607462763980800,42.520980712890626,9.422337532043457,0.12622138857841492,-0.5473581552505493
1718607462812855300,42.56985522460938,10.130014419555664,-0.2470589429140091,-0.6460621356964111
1718607462861729800,42.61872973632813,9.531210899353027,0.007178467698395252,-0.6915257573127747
1718607462910604500,42.6676044921875,10.104291915893555,-0.4977070987224579,-1.2065808773040771
1718607462959479000,42.71647900390625,10.082756042480469,0.06281159073114395,-1.4015958309173584
1718607463008353500,42.765353515625,9.8871431350708,0.1950150430202484,-1.3010972738265991
1718607463057228300,42.814228271484374,9.896116256713867,0.23988047242164612,-1.5990036725997925
1718607463106102800,42.863102783203125,9.722038269042969,-0.09092725813388824,-1.3130614757537842
1718607463154977500,42.9119775390625,9.704092025756836,-0.09571290761232376,-1.1318050622940063
1718607463203852000,42.96085205078125,9.649057388305664,-0.05144568532705307,-1.0654042959213257
1718607463252726500,43.0097265625,10.104291915893555,-0.13698910176753998,-1.2628121376037598
1718607463301601300,43.05860131835937,9.90688419342041,0.25722843408584595,-1.29810631275177
1718607463350475800,43.10747583007812,10.092328071594238,-0.2560320198535919,-1.1270195245742798
1718607463399350500,43.1563505859375,9.827920913696289,-0.18963119387626648,-1.0582258701324463
1718607463448225000,43.20522509765625,9.90688419342041,0.04307080805301666,-0.6071787476539612
1718607463497099500,43.254099609375,9.998409271240234,-0.01136590726673603,-0.6221339106559753
1718607463545974300,43.30297436523438,9.920044898986816,-0.15254244208335876,-0.5814558863639832
1718607463594848800,43.35184887695313,9.959526062011719,-0.1585244983434677,-0.46899324655532837
1718607463643723300,43.40072314453125,9.860223770141602,0.039481572806835175,-0.5359922647476196
1718607463692598000,43.44959790039063,10.04447078704834,0.267397940158844,-0.6424728631973267
1718607463741472500,43.49847241210937,9.852447509765625,0.1902294009923935,-0.7052844762802124
1718607463790347300,43.54734716796875,9.832108497619629,-0.0771685317158699,-0.7806583642959595
1718607463839221800,43.5962216796875,9.967302322387695,-0.3038884699344635,-0.7363911867141724
1718607463888096300,43.64509619140625,10.03848934173584,-0.15194423496723175,-0.893121063709259
1718607463936971000,43.693970947265626,10.023533821105957,0.05623133108019829,-1.0510473251342773
1718607463985845500,43.74284545898438,9.958928108215332,0.22552353143692017,-1.144965648651123
1718607464034720300,43.79172021484375,9.862018585205078,0.40737804770469666,-1.2293126583099365
1718607464083594800,43.8405947265625,9.927223205566406,0.21954147517681122,-1.2113664150238037
1718607464132469200,43.88946923828125,9.749555587768555,0.13519448041915894,-1.29810631275177
1718607464181344000,43.938343994140624,9.509675025939941,-0.19980068504810333,-1.3764712810516357
1718607464230218500,43.987218505859374,9.882357597351074,-0.4570291340351105,-1.3280165195465088
1718607464279093200,44.03609326171875,10.240682601928711,-0.3074777126312256,-1.1318050622940063
1718607464327967700,44.0849677734375,9.996614456176758,0.24945175647735596,-1.2831511497497559
1718607464376842200,44.13384228515625,9.664610862731934,0.6699903607368469,-1.5439687967300415
1718607464425717000,44.18271704101563,9.664012908935547,0.3248256742954254,-1.6205391883850098
1718607464474591500,44.23159155273437,9.797411918640137,-0.5940182209014893,-1.3848460912704468
1718607464523466000,44.28046606445312,9.65085220336914,-0.5491527915000916,-1.2693923711776733
1718607464572340700,44.3293408203125,9.801599502563477,-0.4295116662979126,-1.26699960231781
1718607464621215200,44.37821533203125,10.024730682373047,0.4408775866031647,-1.3663017749786377
1718607464670089700,44.42708984375,9.539586067199707,0.7417750358581543,-1.3214362859725952
1718607464718964500,44.47596459960938,9.89551830291748,0.040677983313798904,-1.3722838163375854
1718607464767839000,44.5248388671875,9.570094108581543,-0.35892340540885925,-0.96370929479599
1718607464816713700,44.57371362304688,10.050453186035156,-0.8793623447418213,-0.7160521745681763
1718607464865588200,44.62258813476563,9.979267120361328,-0.48095735907554626,-1.0289137363433838
1718607464914462700,44.67146264648437,9.951749801635742,-0.052043892443180084,-1.1018948554992676
1718607464963337500,44.72033740234375,9.986445426940918,0.529412031173706,-1.1724830865859985
1718607465012212000,44.7692119140625,9.753145217895508,0.4307080805301666,-1.103689432144165
1718607465061086700,44.818086669921875,10.03848934173584,-0.08733802288770676,-0.9619147181510925
1718607465109961200,44.866961181640626,9.902098655700684,-0.44805604219436646,-0.6753742098808289
1718607465158835700,44.91583569335938,10.109077453613281,-0.5694918036460876,-0.7022934556007385
1718607465207710500,44.96471044921875,10.198209762573242,-0.12921242415905,-0.9990034699440002
1718607465256585000,45.0135849609375,10.205986976623535,0.25722843408584595,-1.2400803565979004
1718607465305459500,45.06245947265625,10.05404281616211,0.38285163044929504,-1.2394821643829346
1718607465354334200,45.111334228515624,10.055837631225586,-0.048454657196998596,-0.9098708033561707
1718607465403208700,45.160208740234374,10.168299674987793,-0.29790642857551575,-0.5724828243255615
1718607465452083500,45.20908349609375,10.006784439086914,-0.3924229145050049,-0.600000262260437
1718607465500958000,45.2579580078125,9.927821159362793,-0.1417747437953949,-0.8739784955978394
1718607465549832400,45.30683251953125,9.761520385742188,0.015553346835076809,-0.9559326171875
1718607465598707200,45.35570727539063,9.858428955078125,0.03170489892363548,-1.0307083129882812
1718607465647581700,45.40458178710937,9.9409818649292,-0.010767702013254166,-1.0247262716293335
1718607465696456200,45.45345629882812,9.941579818725586,-0.014955141581594944,-0.9750752449035645
1718607465745331000,45.5023310546875,9.52941608428955,-0.06281159073114395,-0.9457631707191467
1718607465794205400,45.55120532226562,9.81535816192627,-0.1824527233839035,-0.8685946464538574
1718607465843080000,45.600079833984374,9.56052303314209,0.05563312768936157,-0.7244270443916321
1718607465891954700,45.64895458984375,9.693922996520996,0.03469592705368996,-0.8703892230987549
1718607465940829200,45.6978291015625,9.524630546569824,0.14775680005550385,-1.1563315391540527
1718607465989703700,45.74670361328125,9.664012908935547,0.21655045449733734,-1.1270195245742798
1718607466038578400,45.79557836914063,9.673583984375,0.13878370821475983,-1.0671988725662231
1718607466087453000,45.84445288085937,9.619147300720215,-0.19621145725250244,-0.9625129103660583
1718607466136327700,45.89332763671875,9.625727653503418,-0.10408778488636017,-1.0947163105010986
1718607466185202200,45.9422021484375,9.827920913696289,0.23030917346477509,-0.9840483069419861
1718607466234076700,45.99107666015625,10.023533821105957,0.35473597049713135,-1.0205388069152832
1718607466282951400,46.039951416015626,9.933204650878906,0.5306084156036377,-0.997208833694458
1718607466331826000,46.088825927734376,9.89551830291748,0.04785645380616188,-0.9595218896865845
1718607466380700400,46.13770043945313,9.620942115783691,-0.02273181453347206,-0.6963114142417908
1718607466429575200,46.1865751953125,9.639486312866211,-0.018544375896453857,-0.4426721930503845
1718607466478449700,46.23544970703125,9.635298728942871,0.388235479593277,-0.4253242313861847
1718607466527324200,46.28432421875,10.136594772338867,0.7046862840652466,-0.5300102233886719
1718607466576199000,46.333198974609374,9.44447135925293,1.113858938217163,-0.7405785918235779
1718607466625073400,46.382073486328125,9.376275062561035,0.48095735907554626,-0.5838487148284912
1718607466673948000,46.430947998046875,9.747162818908691,0.2267199456691742,-0.29730820655822754
1718607466722822700,46.47982275390625,9.866804122924805,0.6275177597999573,0.14895321428775787
1718607466771697200,46.528697265625,9.489336013793945,1.1467602252960205,-0.006580262444913387
1718607466820571600,46.57757153320313,10.384251594543457,0.5904290080070496,-0.2554338276386261
1718607466869446400,46.6264462890625,9.829116821289062,0.5874379873275757,-0.07417750358581543
1718607466918321000,46.67532080078125,10.080962181091309,1.1066805124282837,-0.08614161610603333
1718607466967195600,46.72419555664062,9.839286804199219,0.4013960063457489,-0.08554340898990631
1718607467016070100,46.773070068359374,10.354341506958008,0.6544370055198669,-0.09152546525001526
1718607467064944600,46.821944580078124,9.619745254516602,0.6562315821647644,-0.17587246000766754
1718607467113819400,46.8708193359375,10.016355514526367,0.7615157961845398,-0.6269195079803467
1718607467162694000,46.91969384765625,9.768099784851074,0.8656035661697388,-0.6017948985099792
1718607467211568400,46.968568359375,9.976874351501465,0.9188438653945923,-0.6861419081687927
1718607467260443100,47.01744311523437,9.804591178894043,0.6532405614852905,-0.8368897438049316
1718607467309317600,47.06631762695312,10.010972023010254,0.664606511592865,-0.8009973764419556
1718607467358192000,47.11519213867187,9.838688850402832,0.7166503667831421,-0.4941178858280182
1718607467407067000,47.16406689453125,9.625128746032715,0.597607433795929,-0.5575276613235474
1718607467455941400,47.21294140625,9.607182502746582,0.6604190468788147,-0.722034215927124
1718607467504815900,47.26181591796875,9.81954574584961,0.7339983582496643,-0.6472585201263428
1718607467553690600,47.31069067382813,9.824331283569336,0.8632107973098755,-0.6849454641342163
1718607467602565000,47.35956518554688,9.841081619262695,0.9960124492645264,-0.7154539823532104
1718607467651439600,47.40843969726563,9.799206733703613,0.9032905697822571,-0.5796613097190857
1718607467700314400,47.457314453125,9.896116256713867,0.8201399445533752,-0.4175475537776947
1718607467749188900,47.50618896484375,9.851848602294922,0.7405785918235779,-0.364905446767807
1718607467798063600,47.555063720703124,9.992427825927734,0.9397810697555542,-0.4743770956993103
1718607467846938000,47.603938232421875,9.821938514709473,1.1096714735031128,-0.6693921089172363
1718607467895812600,47.6528125,9.888937950134277,1.4057832956314087,-0.8309076428413391
1718607467944687400,47.701687255859376,9.727422714233398,1.334596872329712,-0.7286145091056824
1718607467993561900,47.75056176757813,9.954142570495605,1.0342975854873657,-0.5736792087554932
1718607468042436400,47.79943627929688,9.960722923278809,0.9517452120780945,-0.3720839321613312
1718607468091311000,47.84831103515625,9.705288887023926,0.9996016621589661,-0.31106695532798767
1718607468140185600,47.897185546875,9.638887405395508,1.098305583000183,-0.32961133122444153
1718607468189060000,47.94606005859375,9.844072341918945,1.197009563446045,-0.22133609652519226
1718607468237934800,47.994934814453124,9.912267684936523,1.1994023323059082,-0.3026920557022095
1718607468286809300,48.043809326171875,9.892526626586914,1.1856436729431152,-0.49710890650749207
1718607468335683800,48.092683837890625,9.67777156829834,1.0564311742782593,-0.4749752879142761
1718607468384558600,48.14155859375,9.908080101013184,1.0552347898483276,-0.4001995921134949
1718607468433433000,48.19043310546875,9.890732765197754,1.0055837631225586,-0.25363919138908386
1718607468482307600,48.2393076171875,9.805787086486816,0.9966106414794922,-0.389431893825531
1718607468531182300,48.28818237304687,9.828518867492676,1.090528964996338,-0.41216370463371277
1718607468580056800,48.33705688476562,9.76391315460205,1.2490534782409668,-0.34995031356811523
1718607468628931300,48.385931396484374,9.897313117980957,1.2502498626708984,-0.28115665912628174
1718607468677806000,48.43480615234375,9.708279609680176,1.109073281288147,-0.41515472531318665
1718607468726680600,48.4836806640625,9.923035621643066,0.8925228714942932,-0.5413761138916016
1718607468775555000,48.53255517578125,9.936196327209473,0.9888339638710022,-0.4331009089946747
1718607468824429800,48.58142993164063,10.010972023010254,1.2490534782409668,-0.3475574851036072
1718607468873304300,48.63030419921875,9.7064847946167,1.3471591472625732,-0.3523431420326233
1718607468922178800,48.6791787109375,9.817750930786133,1.2317054271697998,-0.3451646566390991
1718607468971053600,48.72805346679687,9.787840843200684,1.1425727605819702,-0.27696922421455383
1718607469019928000,48.77692797851562,9.959526062011719,1.1306086778640747,-0.36610186100006104
1718607469068802600,48.82580249023437,9.90987491607666,1.394417405128479,-0.5479564070701599
1718607469117677300,48.87467724609375,9.879964828491211,1.3567304611206055,-0.6400800347328186
1718607469166551800,48.9235517578125,9.875179290771484,1.2598211765289307,-0.6825526356697083
1718607469215426300,48.97242626953125,9.89432144165039,1.1407781839370728,-0.5132604837417603
1718607469264301000,49.02130102539063,9.767501831054688,1.1527422666549683,-0.4941178858280182
1718607469313175600,49.07017553710938,9.783653259277344,1.303490161895752,-0.5730810165405273
1718607469362050000,49.11905004882812,9.756733894348145,1.4470595121383667,-0.666999340057373
1718607469410924800,49.1679248046875,9.768698692321777,1.3537393808364868,-0.6693921089172363
1718607469459799300,49.21679931640625,9.867402076721191,1.3728820085525513,-0.6526423692703247
1718607469508673800,49.265673828125,9.850054740905762,1.2538390159606934,-0.6221339106559753
1718607469557548300,49.31454833984375,10.028918266296387,1.2460623979568481,-0.5814558863639832
1718607469606423000,49.363423095703126,9.902098655700684,1.2616157531738281,-0.5072783827781677
1718607469655297500,49.41229760742188,9.964909553527832,1.170688509941101,-0.4540380835533142
1718607469704172000,49.46117211914063,9.699904441833496,1.2418749332427979,-0.3481557071208954
1718607469753046800,49.510046875,9.687342643737793,1.2975081205368042,-0.27696922421455383
1718607469801921300,49.55892138671875,9.648459434509277,1.1994023323059082,-0.3690928816795349
1718607469850795800,49.60779565429687,9.893125534057617,1.1330015659332275,-0.4378865361213684
1718607469899670500,49.65667041015625,9.879964828491211,1.3262219429016113,-0.5605186820030212
1718607469948545000,49.705544921875,9.887741088867188,1.4093725681304932,-0.5940182209014893
1718607469997419500,49.75441943359375,9.797411918640137,1.3914263248443604,-0.3762713670730591
1718607470046294300,49.803294189453126,10.013962745666504,1.1413763761520386,-0.27337998151779175
1718607470095168800,49.85216870117188,10.019346237182617,1.079761266708374,-0.33080771565437317
1718607470144043300,49.90104321289063,9.917651176452637,1.332203984260559,-0.4899304509162903
1718607470192918000,49.94991796875,9.674779891967773,1.3746765851974487,-0.5611169338226318
1718607470241792500,49.99879248046875,9.632308006286621,1.3160524368286133,-0.5569294691085815
1718607470290667000,50.0476669921875,9.678369522094727,1.2903295755386353,-0.625723123550415
1718607470339541500,50.09654150390625,9.825528144836426,1.2323036193847656,-0.7501499056816101
1718607470388416300,50.145416259765625,9.906285285949707,1.3022937774658203,-0.745364248752594
1718607470437290800,50.194290771484376,9.927223205566406,1.4297115802764893,-0.6107679605484009
1718607470486165200,50.243165283203126,9.891928672790527,1.412961721420288,-0.47676992416381836
1718607470535040000,50.2920400390625,10.016355514526367,1.2340983152389526,-0.29012975096702576
1718607470583914500,50.34091455078125,9.990034103393555,1.1306086778640747,-0.28115665912628174
1718607470632789000,50.3897890625,9.981060981750488,1.1617153882980347,-0.4211367964744568
1718607470681663700,50.43866381835937,9.70349407196045,1.332802176475525,-0.592223584651947
1718607470730538200,50.487538330078124,9.555737495422363,1.3848460912704468,-0.672383189201355
1718607470779412700,50.536412841796874,9.558130264282227,1.4757733345031738,-0.6215356588363647
1718607470828287200,50.585287353515625,9.735796928405762,1.3573286533355713,-0.6071787476539612
1718607470877162000,50.634161865234375,9.875179290771484,1.1736794710159302,-0.6598208546638489
1718607470926036500,50.683036376953126,9.993623733520508,1.2089736461639404,-0.6532405614852905
1718607470974911000,50.73191088867188,10.036694526672363,1.472184181213379,-0.5491527915000916
1718607471023785700,50.78078564453125,9.939187049865723,1.5230315923690796,-0.4863412082195282
1718607471072660200,50.82966015625,9.836894035339355,1.2681959867477417,-0.41575294733047485
1718607471121534700,50.87853466796875,9.877572059631348,1.1318050622940063,-0.41216370463371277
1718607471170409500,50.927409423828124,9.904491424560547,1.1461620330810547,-0.4342973232269287
1718607471219284000,50.976283935546874,9.827920913696289,1.4315061569213867,-0.47258245944976807
1718607471268158500,51.025158447265625,9.710074424743652,1.4979069232940674,-0.5485545992851257
1718607471317033000,51.074032958984375,9.66640567779541,1.2915260791778564,-0.5838487148284912
1718607471365907700,51.12290771484375,9.614959716796875,1.2442678213119507,-0.5718846321105957
1718607471414782200,51.1717822265625,9.871589660644531,1.2843475341796875,-0.5509474277496338
1718607471463656700,51.22065673828125,9.92423152923584,1.5050854682922363,-0.5024927258491516
1718607471512531500,51.26953149414062,9.945169448852539,1.41834557056427,-0.4001995921134949
1718607471561406000,51.31840600585937,10.018150329589844,1.1820544004440308,-0.3678964674472809
1718607471610280400,51.36728051757812,9.90688419342041,1.3459627628326416,-0.4175475537776947
1718607471659155000,51.416155029296874,9.92542839050293,1.456032633781433,-0.5521438121795654
1718607471708029700,51.46502978515625,9.80100154876709,1.3968101739883423,-0.5312066078186035
1718607471756904200,51.513904296875,9.770493507385254,1.186241865158081,-0.5653043389320374
1718607471805778700,51.56277880859375,9.804591178894043,1.1718848943710327,-0.5886343717575073
1718607471854653400,51.6116533203125,9.794421195983887,1.3286148309707642,-0.5862415432929993
1718607471903528000,51.66052783203125,9.779465675354004,1.4536397457122803,-0.5659025311470032
1718607471952402400,51.70940234375,9.795618057250977,1.3806586265563965,-0.5138586759567261
1718607472001277000,51.75827685546875,9.808777809143066,1.194616675376892,-0.48095735907554626
1718607472050151700,51.80715161132812,9.741181373596191,1.2376874685287476,-0.5533402562141418
1718607472099026200,51.856026123046874,9.78126049041748,1.3782658576965332,-0.5940182209014893
1718607472147900700,51.904900634765625,9.844072341918945,1.5104693174362183,-0.5742774605751038
1718607472196775400,51.953775390625,9.949954986572266,1.3124631643295288,-0.6017948985099792
1718607472245650000,52.00264990234375,9.950552940368652,1.2406785488128662,-0.6346961855888367
1718607472294524400,52.0515244140625,10.000204086303711,1.28255295753479,-0.6323033571243286
1718607472343399000,52.10039892578125,9.91825008392334,1.3657035827636719,-0.6574280261993408
1718607472392273700,52.14927368164062,9.93978500366211,1.4428720474243164,-0.5916253924369812
1718607472441148200,52.19814819335937,9.76989459991455,1.649253010749817,-0.5300102233886719
1718607472490022700,52.24702270507812,9.655637741088867,1.6163517236709595,-0.47916272282600403
1718607472538897400,52.2958974609375,9.5533447265625,1.5978072881698608,-0.4504488706588745
1718607472587772000,52.34477197265625,9.699904441833496,1.3746765851974487,-0.4384847581386566
1718607472636646400,52.393646484375,9.89850902557373,1.4632110595703125,-0.4211367964744568
1718607472685521000,52.44252099609375,9.962516784667969,1.451246976852417,-0.49292147159576416
1718607472734395600,52.49139575195313,9.873384475708008,1.4835500717163086,-0.672383189201355
1718607472783270100,52.54027026367187,9.983454704284668,1.5146567821502686,-0.6442674994468689
1718607472832144600,52.58914453125,9.891928672790527,1.5230315923690796,-0.5700899958610535
1718607472881019100,52.63801904296875,9.927821159362793,1.5433706045150757,-0.6586244106292725
1718607472929894000,52.68689379882812,9.817750930786133,1.4368900060653687,-0.5910272002220154
1718607472978768400,52.735768310546874,9.781859397888184,1.2999008893966675,-0.5222335457801819
1718607473027643000,52.784642822265624,9.77408218383789,1.4111671447753906,-0.4414757788181305
1718607473076517400,52.833517333984375,9.650253295898438,1.3926228284835815,-0.47676992416381836
1718607473125392100,52.88239208984375,9.79681396484375,1.179063320159912,-0.5240281820297241
1718607473174266600,52.9312666015625,9.846465110778809,1.2502498626708984,-0.44027936458587646
1718607473223141000,52.98014111328125,9.996016502380371,1.3525429964065552,-0.50129634141922
1718607473272015600,53.029015625,9.809974670410156,1.4021940231323242,-0.5521438121795654
1718607473320890400,53.07789038085937,9.985847473144531,1.0492527484893799,-0.5665007829666138
1718607473369764900,53.12676489257812,9.827920913696289,1.0606186389923096,-0.5694918036460876
1718607473418639400,53.175639404296874,9.982257843017578,1.1904292106628418,-0.5784648656845093
1718607473467513900,53.224513916015624,9.80518913269043,1.3507484197616577,-0.6275177597999573
1718607473516388600,53.273388671875,9.796216011047363,1.2376874685287476,-0.534795880317688
1718607473565263000,53.32226318359375,9.8207426071167,1.0773683786392212,-0.4378865361213684
1718607473614137600,53.3711376953125,9.664012908935547,1.0552347898483276,-0.3978067636489868
1718607473663012400,53.42001245117188,9.742377281188965,0.9260223507881165,-0.48873403668403625
1718607473711886800,53.46888696289062,10.052248001098633,0.8901300430297852,-0.5168496966362
1718607473760761300,53.51776123046875,9.661619186401367,1.5080764293670654,-0.5066801905632019
1718607473809635800,53.5666357421875,10.071989059448242,1.3980066776275635,-0.6305087804794312
1718607473858510600,53.61551049804687,9.737591743469238,1.2281162738800049,-0.5288137793540955
1718607473907385000,53.664385009765624,9.93380355834961,1.1826525926589966,-0.46002015471458435
1718607473956259600,53.713259521484375,9.81954574584961,0.8309076428413391,-0.5431707501411438
1718607474005134000,53.762134033203125,9.985248565673828,1.0474581718444824,-0.44446679949760437
1718607474054008600,53.811008544921876,9.829116821289062,1.4626128673553467,-0.41994038224220276
1718607474102883300,53.85988330078125,9.859625816345215,1.4321043491363525,-0.4941178858280182
1718607474151757800,53.9087578125,9.77527904510498,1.1156535148620605,-0.349352091550827
1718607474200632300,53.95763232421875,9.818349838256836,0.898504912853241,-0.3655036687850952
1718607474249506800,54.0065068359375,9.799206733703613,0.778863787651062,-0.47258245944976807
1718607474298381600,54.05538159179687,9.802796363830566,1.0031908750534058,-0.47916272282600403
1718607474347256000,54.104256103515624,9.744172096252441,1.058824062347412,-0.5533402562141418
1718607474396130600,54.153130615234375,9.952945709228516,0.8781659007072449,-0.5341976284980774
1718607474445005000,54.202005126953125,9.862018585205078,0.7752745151519775,-0.3936193287372589
1718607474493879800,54.2508798828125,9.969695091247559,0.6993024349212646,-0.5306084156036377
1718607474542754300,54.29975439453125,9.827322959899902,0.7172485589981079,-0.5024927258491516
1718607474591628800,54.34862890625,9.888937950134277,0.778863787651062,-0.4414757788181305
1718607474640503300,54.39750341796875,9.780662536621094,0.7674978375434875,-0.527019202709198
1718607474689377800,54.44637768554688,9.896714210510254,0.6951149702072144,-0.5335994362831116
1718607474738252500,54.49525244140625,9.81356430053711,0.7591229677200317,-0.5335994362831116
1718607474787127000,54.544126953125,9.807581901550293,0.7752745151519775,-0.5264210104942322
1718607474836001500,54.59300146484375,9.795019149780273,0.7393822073936462,-0.4576273262500763
1718607474884876000,54.6418759765625,9.81655502319336,0.6927221417427063,-0.4713860750198364
1718607474933750800,54.690750732421876,9.832706451416016,0.7339983582496643,-0.5162515044212341
1718607474982625300,54.739625244140626,9.976874351501465,0.828514814376831,-0.46480581164360046
1718607475031499800,54.78849975585938,9.881759643554688,0.9373882412910461,-0.4737788736820221
1718607475080374300,54.83737426757813,9.870991706848145,0.9918249845504761,-0.4043870270252228
1718607475129249000,54.8862490234375,9.842277526855469,0.8697910308837891,-0.3900300860404968
1718607475178123500,54.93512353515625,9.870393753051758,0.9056833982467651,-0.48813581466674805
1718607475226998000,54.983998046875,9.854242324829102,1.0043872594833374,-0.50907301902771
1718607475275872500,55.03287255859375,9.81117057800293,1.1670992374420166,-0.5706881880760193
1718607475324747300,55.081747314453125,9.835697174072266,1.1820544004440308,-0.5647061467170715
1718607475373621800,55.130621826171875,9.806983947753906,1.1413763761520386,-0.48394837975502014
1718607475422496300,55.179496337890626,9.841679573059082,1.1102696657180786,-0.46899324655532837
1718607475471370800,55.22837084960938,9.835099220275879,1.103689432144165,-0.4504488706588745
1718607475520245200,55.27724536132813,9.835099220275879,1.0887342691421509,-0.46061834692955017
1718607475569120000,55.3261201171875,9.882955551147461,1.1156535148620605,-0.4624129831790924
1718607475617994500,55.37499438476563,9.866206169128418,1.2221341133117676,-0.5006981492042542
1718607475666869000,55.42386889648437,9.89970588684082,1.1772687435150146,-0.5264210104942322
1718607475715743500,55.47274340820312,9.892526626586914,1.1910275220870972,-0.5048855543136597
1718607475764618200,55.5216181640625,9.764511108398438,1.074377417564392,-0.4576273262500763
1718607475813492700,55.57049267578125,9.608379364013672,0.29730820655822754,-0.4833501875400543
1718607475862367200,55.6193671875,9.803394317626953,-0.6370890140533447,-0.35832518339157104
1718607475911241700,55.66824169921875,9.806983947753906,-1.2113664150238037,-0.22911277413368225
1718607475960116200,55.7171162109375,10.265807151794434,-1.2137593030929565,-0.3774677813053131
1718607476008991000,55.76599096679688,9.980463027954102,-0.3206382393836975,-0.49172505736351013
1718607476057865500,55.81486547851563,9.983454704284668,0.6807580590248108,-0.4785645306110382
1718607476106740000,55.86373999023437,9.853045463562012,1.2843475341796875,-0.5144568681716919
1718607476155614500,55.91261450195312,9.641280174255371,0.836291491985321,-0.4893322288990021
1718607476204489000,55.96148901367187,9.744172096252441,-0.05144568532705307,-0.357128769159317
1718607476253363700,56.01036376953125,9.804591178894043,-0.5808576941490173,-0.33439695835113525
1718607476302238200,56.05923828125,9.859027862548828,-0.4534398913383484,-0.34695929288864136
1718607476351112700,56.10811279296875,9.934401512145996,-0.1860419660806656,-0.39900317788124084
1718607476399987200,56.1569873046875,9.946365356445312,0.06939185410737991,-0.46719861030578613
1718607476448861700,56.20586181640625,9.920044898986816,0.32243284583091736,-0.3332005441188812
1718607476497736400,56.254736328125,9.865009307861328,0.137587308883667,-0.6161518096923828
1718607476546611000,56.30361083984375,9.7998046875,0.0077766734175384045,-0.6340979933738708
1718607476595485400,56.3524853515625,9.742975234985352,-0.017946170642971992,-0.4253242313861847
1718607476644360000,56.40135986328125,9.81356430053711,-0.12382857501506805,-0.4205385744571686
1718607476693234400,56.450234375,9.88415241241455,-0.11306086927652359,-0.4205385744571686
1718607476742109200,56.499109130859374,9.930811882019043,-0.02512463741004467,-0.4695914387702942
1718607476790983700,56.547983642578124,9.91286563873291,-0.03768695518374443,-0.5904290080070496
1718607476839858200,56.596858154296875,9.904491424560547,-0.019142581149935722,-0.5324030518531799
1718607476888732700,56.645732666015626,9.820143699645996,-0.02273181453347206,-0.43609192967414856
1718607476937607200,56.694607177734376,9.787840843200684,-0.0526420995593071,-0.3798605799674988
1718607476986482000,56.74348193359375,9.784850120544434,-0.048454657196998596,-0.3487538993358612
1718607477035356400,56.7923564453125,9.844072341918945,-0.0005982056609354913,-0.3978067636489868
1718607477084231000,56.84123095703125,9.890732765197754,0.02153540402650833,-0.47676992416381836
1718607477133105400,56.89010546875,9.910472869873047,-0.030508488416671753,-0.5216353535652161
1718607477181980000,56.93897998046875,9.907482147216797,-0.10229317098855972,-0.4773681163787842
1718607477230854700,56.987854736328124,9.896714210510254,-0.10887342691421509,-0.4139583110809326
1718607477279729200,57.036729248046875,9.856635093688965,-0.04307080805301666,-0.3529413342475891
1718607477328603600,57.085603759765625,9.865608215332031,-0.04785645380616188,-0.3696911036968231
1718607477377478100,57.13447802734375,9.814162254333496,-0.010169495828449726,-0.34277185797691345
1718607477426352600,57.1833525390625,9.866804122924805,0.029910283163189888,-0.36729827523231506
1718607477475227100,57.23222705078125,9.805787086486816,-0.059820566326379776,-0.47557350993156433
1718607477524102000,57.28110180664063,9.89133071899414,-0.12622138857841492,-0.5802595019340515
1718607477572976400,57.32997631835938,9.827920913696289,-0.058624155819416046,-0.5676971673965454
1718607477621851000,57.37885083007812,9.904491424560547,-0.04785645380616188,-0.50129634141922
1718607477670725400,57.42772534179687,9.858428955078125,0.005383851006627083,-0.4426721930503845
1718607477719599900,57.47659985351562,9.906285285949707,-0.035892341285943985,-0.39541393518447876
1718607477768474400,57.52547436523437,9.838089942932129,-0.0568295381963253,-0.4049852192401886
1718607477817349000,57.57434912109375,9.854840278625488,-0.049651071429252625,-0.4707878530025482
1718607477866223600,57.6232236328125,9.859027862548828,-0.03409772366285324,-0.5623133182525635
1718607477915098000,57.67209814453125,9.860223770141602,-0.013160524889826775,-0.5389832854270935
1718607477963972600,57.72097265625,9.854840278625488,-0.03768695518374443,-0.49172505736351013
1718607478012847000,57.76984716796875,9.849455833435059,-0.09810572862625122,-0.5216353535652161
1718607478061721600,57.8187216796875,9.872786521911621,-0.039481572806835175,-0.43549370765686035
1718607478110596400,57.86759643554687,9.839286804199219,-0.02751746028661728,-0.4091726839542389
1718607478159470800,57.91647094726562,9.865608215332031,-0.0526420995593071,-0.4618147611618042
1718607478208345300,57.96534545898437,9.860223770141602,-0.05144568532705307,-0.45942193269729614
1718607478257219800,58.0142197265625,9.870393753051758,-0.025722842663526535,-0.5264210104942322
1718607478306094300,58.06309423828125,9.847661972045898,-0.03768695518374443,-0.5521438121795654
1718607478354968800,58.11196875,9.879366874694824,-0.06640082597732544,-0.5479564070701599
1718607478403843600,58.160843505859376,9.874580383300781,-0.010169495828449726,-0.4821537733078003
1718607478452718000,58.209718017578126,9.847661972045898,-0.029312077909708023,-0.3966103494167328
1718607478501592600,58.25859252929688,9.852447509765625,-0.11306086927652359,-0.3475574851036072
1718607478550467000,58.30746704101563,9.860821723937988,-0.07597211748361588,-0.3930211067199707
1718607478599341600,58.35634155273438,9.857233047485352,-0.019740786403417587,-0.4863412082195282
1718607478648216300,58.40521630859375,9.840482711791992,-0.050847481936216354,-0.5814558863639832
1718607478697090800,58.4540908203125,9.875179290771484,-0.052043892443180084,-0.5706881880760193
1718607478745965300,58.50296533203125,9.860223770141602,-0.04666004329919815,-0.4660021960735321
1718607478794839800,58.55183984375,9.89850902557373,-0.04486542567610741,-0.4408775866031647
1718607478843714300,58.60071435546875,9.857831001281738,-0.08075776696205139,-0.3930211067199707
1718607478892588800,58.6495888671875,9.900303840637207,-0.07178468257188797,-0.3314059376716614
1718607478941463300,58.69846337890625,9.840482711791992,-0.0526420995593071,-0.357128769159317
1718607478990337800,58.747337890625,9.831509590148926,-0.05503492057323456,-0.5168496966362
1718607479039212500,58.79621264648438,9.824930191040039,-0.03768695518374443,-0.5300102233886719
1718607479088087000,58.84508715820313,9.853045463562012,-0.03888336941599846,-0.5168496966362
1718607479136961500,58.89396142578125,9.851250648498535,-0.062213387340307236,-0.5413761138916016
1718607479185836000,58.9428359375,9.865608215332031,-0.046061836183071136,-0.46779683232307434
1718607479234710500,58.99171044921875,9.88415241241455,-0.07776673883199692,-0.4205385744571686
1718607479283585000,59.0405849609375,9.849455833435059,-0.03290131315588951,-0.41934216022491455
1718607479332459500,59.08945947265625,9.90149974822998,-0.029312077909708023,-0.4989035129547119
1718607479381334300,59.138334228515625,9.877572059631348,-0.04187439754605293,-0.6185446381568909
1718607479430208800,59.187208740234375,9.821340560913086,-0.07896314561367035,-0.6137589812278748
1718607479479083300,59.236083251953126,9.81117057800293,-0.08015955984592438,-0.6071787476539612
1718607479527957800,59.284957763671876,9.869196891784668,-0.050847481936216354,-0.7322037220001221
1718607479576832300,59.33383227539063,9.778867721557617,-0.02751746028661728,-0.5988038778305054
1718607479625706800,59.38270678710938,9.902098655700684,-0.039481572806835175,-0.4833501875400543
1718607479674581200,59.43158129882813,9.836296081542969,-0.09152546525001526,-0.50129634141922
1718607479723456000,59.4804560546875,9.896116256713867,-0.08015955984592438,-0.5018945336341858
1718607479772330500,59.52933056640625,9.893125534057617,-0.029910283163189888,-0.5605186820030212
1718607479821205000,59.578205078125,9.843474388122559,-0.052043892443180084,-0.6604190468788147
1718607479870079500,59.62707958984375,9.839286804199219,-0.02871387079358101,-0.631106972694397
1718607479918954000,59.6759541015625,9.863214492797852,-0.062213387340307236,-0.5742774605751038
1718607479967828500,59.724828369140624,9.831509590148926,-0.03529413416981697,-0.5569294691085815
1718607480016703000,59.773702880859375,9.869794845581055,-0.03768695518374443,-0.5330012440681458
1718607480065577700,59.82257763671875,9.859625816345215,-0.07896314561367035,-0.5641079545021057
1718607480114452200,59.8714521484375,9.859625816345215,-0.1010967567563057,-0.6329016089439392
1718607480163326700,59.92032666015625,9.804591178894043,-0.07896314561367035,-0.6562315821647644
1718607480212201200,59.969201171875,9.80937671661377,-0.03170489892363548,-0.6484549641609192
1718607480261075700,60.01807568359375,9.853045463562012,-0.006580262444913387,-0.6729813814163208
1718607480309950200,60.0669501953125,9.862616539001465,-0.028115665540099144,-0.5724828243255615
1718607480358824700,60.11582470703125,9.8871431350708,-0.08673982322216034,-0.5700899958610535
1718607480407699200,60.16469921875,9.883553504943848,-0.05802594870328903,-0.6675975322723389
1718607480456573700,60.21357373046875,9.844072341918945,0.03290131315588951,-0.6789634227752686
1718607480505448400,60.262448486328125,9.854840278625488,-0.04007977992296219,-0.7040880918502808
1718607480554323000,60.311322998046876,9.798608779907227,-0.12681959569454193,-0.6855437159538269
1718607480603197400,60.36019750976563,9.854840278625488,-0.09631111472845078,-0.6239284873008728
1718607480652072000,60.40907202148438,9.812965393066406,-0.03349951654672623,-0.6083751320838928
1718607480700946400,60.45794653320313,9.825528144836426,0,-0.6011967062950134
1718607480749821000,60.50682104492188,9.831509590148926,-0.040677983313798904,-0.6149554252624512
1718607480798695400,60.5556953125,9.859027862548828,-0.07776673883199692,-0.5868397355079651
1718607480847570000,60.60456982421875,9.867402076721191,-0.059820566326379776,-0.6149554252624512
1718607480896444400,60.6534443359375,9.89970588684082,-0.02871387079358101,-0.6831508874893188
1718607480945319200,60.70231909179687,9.896116256713867,-0.0364905446767807,-0.7268198728561401
1718607480994193700,60.751193603515624,9.879366874694824,-0.05024927482008934,-0.6843472719192505
1718607481043068200,60.800068115234374,9.878170013427734,-0.03529413416981697,-0.5659025311470032
1718607481091942700,60.848942626953125,9.839286804199219,-0.0568295381963253,-0.5467599630355835
1718607481140817200,60.897817138671876,9.826126098632812,-0.039481572806835175,-0.5964110493659973
1718607481189691600,60.946691650390626,9.812965393066406,-0.04007977992296219,-0.6011967062950134
1718607481238566100,60.99556616210938,9.837491989135742,-0.03529413416981697,-0.6317051649093628
1718607481287440600,61.04444067382813,9.838688850402832,-0.05144568532705307,-0.6658028960227966
1718607481336315100,61.09331518554688,9.820143699645996,-0.04426721855998039,-0.6634100675582886
1718607481385189600,61.14218969726563,9.835697174072266,-0.03290131315588951,-0.6358926296234131
1718607481434064400,61.191064453125,9.852447509765625,-0.03349951654672623,-0.6502495408058167
1718607481482939000,61.23993896484375,9.867402076721191,-0.02632104977965355,-0.6711867451667786
